timestamp,ax,ay,az,gx,gy,gz,flex1,flex2,flex3,flex4,flex5,emg1,emg2,emg3
2025-02-20 15:54:42.016,-507.0,-213.0,874.0,-1.0,-1.0,-1.0,126,106,92,123,112,465,255,466
2025-02-20 15:54:42.019,-509.0,-220.0,879.0,0.0,0.0,-1.0,126,106,91,124,112,461,263,466
2025-02-20 15:54:42.021,-511.0,-207.0,881.0,-1.0,0.0,-1.0,125,106,93,124,111,460,300,465
2025-02-20 15:54:42.024,-521.0,-209.0,877.0,-1.0,0.0,-1.0,126,106,93,124,111,462,349,465
2025-02-20 15:54:42.026,-512.0,-219.0,874.0,-1.0,1.0,-1.0,126,106,93,123,111,464,416,465
2025-02-20 15:54:42.029,-507.0,-211.0,885.0,0.0,1.0,0.0,126,106,93,124,110,464,486,465
2025-02-20 15:54:42.030,-509.0,-206.0,887.0,-2.0,2.0,1.0,127,106,93,124,111,466,560,464
2025-02-20 15:54:42.035,-503.0,-209.0,889.0,-1.0,3.0,1.0,126,106,93,124,110,468,620,465
2025-02-20 15:54:42.037,-512.0,-227.0,870.0,2.0,3.0,2.0,126,105,93,124,112,467,670,464
2025-02-20 15:54:42.049,-513.0,-203.0,871.0,4.0,1.0,1.0,127,106,93,125,111,465,700,464
2025-02-20 15:54:42.069,-527.0,-217.0,878.0,-2.0,-1.0,1.0,125,106,92,123,112,465,714,464
2025-02-20 15:54:42.089,-519.0,-210.0,868.0,-3.0,-3.0,1.0,126,106,94,125,111,463,714,463
2025-02-20 15:54:42.102,-514.0,-207.0,871.0,-1.0,-3.0,1.0,125,107,93,124,112,466,685,464
2025-02-20 15:54:42.127,-502.0,-213.0,873.0,1.0,-2.0,1.0,126,105,93,124,111,466,641,464
2025-02-20 15:54:42.146,-515.0,-209.0,879.0,1.0,0.0,2.0,126,106,93,126,111,468,581,465
2025-02-20 15:54:42.164,-515.0,-192.0,878.0,0.0,0.0,2.0,127,105,92,124,112,467,527,465
2025-02-20 15:54:42.181,-515.0,-182.0,874.0,-3.0,1.0,2.0,126,106,93,125,112,468,471,466
2025-02-20 15:54:42.200,-511.0,-191.0,875.0,-4.0,1.0,1.0,126,106,92,125,111,469,403,466
2025-02-20 15:54:42.220,-511.0,-193.0,872.0,-4.0,2.0,1.0,126,105,93,123,113,470,332,466
2025-02-20 15:54:42.241,-504.0,-193.0,889.0,-8.0,5.0,1.0,127,106,93,124,111,471,287,466
2025-02-20 15:54:42.258,-510.0,-176.0,864.0,-4.0,4.0,0.0,127,106,93,124,113,472,267,466
2025-02-20 15:54:42.278,-514.0,-188.0,854.0,-3.0,3.0,0.0,126,106,93,125,111,471,270,466
2025-02-20 15:54:42.298,-527.0,-176.0,836.0,-3.0,1.0,0.0,126,105,92,124,112,467,298,466
2025-02-20 15:54:42.315,-509.0,-206.0,861.0,-5.0,0.0,0.0,126,106,94,124,111,465,343,466
2025-02-20 15:54:42.335,-516.0,-213.0,851.0,-3.0,0.0,0.0,126,106,93,123,112,464,393,466
2025-02-20 15:54:42.354,-515.0,-213.0,854.0,0.0,0.0,1.0,127,105,93,124,111,462,453,467
2025-02-20 15:54:42.373,-520.0,-201.0,849.0,1.0,1.0,1.0,127,106,93,124,111,463,523,466
2025-02-20 15:54:42.393,-518.0,-195.0,845.0,1.0,-1.0,1.0,126,103,93,124,112,462,578,464
2025-02-20 15:54:42.412,-522.0,-200.0,840.0,-3.0,0.0,1.0,127,106,94,124,111,462,624,465
2025-02-20 15:54:42.429,-525.0,-209.0,853.0,-1.0,0.0,0.0,127,105,93,124,112,462,649,465
2025-02-20 15:54:42.449,-516.0,-200.0,836.0,2.0,-2.0,-1.0,126,106,93,124,112,465,653,465
2025-02-20 15:54:42.466,-512.0,-200.0,843.0,0.0,0.0,-2.0,125,106,92,124,111,465,639,465
2025-02-20 15:54:42.487,-506.0,-200.0,854.0,-2.0,0.0,-2.0,126,105,93,125,112,468,601,465
2025-02-20 15:54:42.507,-506.0,-224.0,849.0,-2.0,-1.0,-1.0,126,106,94,124,111,469,548,465
2025-02-20 15:54:42.525,-497.0,-210.0,840.0,-2.0,-1.0,1.0,126,105,93,124,111,468,478,465
2025-02-20 15:54:42.544,-509.0,-212.0,843.0,0.0,-1.0,1.0,127,106,94,124,111,466,410,467
2025-02-20 15:54:42.564,-506.0,-199.0,845.0,1.0,-2.0,2.0,125,105,93,123,111,461,333,464
2025-02-20 15:54:42.581,-502.0,-192.0,858.0,1.0,-2.0,2.0,126,106,93,124,112,462,276,467
2025-02-20 15:54:42.601,-508.0,-195.0,865.0,2.0,-2.0,3.0,126,104,93,125,111,461,233,465
2025-02-20 15:54:42.621,-515.0,-176.0,865.0,2.0,-2.0,4.0,126,105,93,125,112,461,211,465
2025-02-20 15:54:42.638,-505.0,-165.0,901.0,0.0,0.0,3.0,127,106,93,125,111,460,209,466
2025-02-20 15:54:42.659,-523.0,-165.0,850.0,1.0,-1.0,3.0,126,105,93,123,112,461,228,465
2025-02-20 15:54:42.673,-529.0,-170.0,851.0,4.0,-2.0,2.0,126,107,93,126,112,461,269,465
2025-02-20 15:54:42.695,-515.0,-167.0,834.0,3.0,-3.0,2.0,126,106,93,125,111,461,325,465
2025-02-20 15:54:42.716,-523.0,-173.0,861.0,2.0,-2.0,1.0,127,106,93,124,112,462,392,466
2025-02-20 15:54:42.733,-526.0,-178.0,854.0,3.0,-3.0,1.0,130,106,93,124,111,463,461,465
2025-02-20 15:54:42.751,-515.0,-173.0,866.0,4.0,-4.0,1.0,125,106,93,124,111,462,537,464
2025-02-20 15:54:42.770,-521.0,-182.0,873.0,3.0,-3.0,0.0,126,105,93,125,111,462,599,464
2025-02-20 15:54:42.789,-514.0,-191.0,875.0,2.0,-3.0,0.0,125,107,93,124,111,463,639,464
2025-02-20 15:54:42.810,-507.0,-188.0,867.0,3.0,-3.0,0.0,126,106,93,124,112,463,665,464
2025-02-20 15:54:42.830,-515.0,-184.0,886.0,2.0,-3.0,-1.0,126,106,93,124,111,462,674,464
2025-02-20 15:54:42.847,-518.0,-188.0,886.0,1.0,-2.0,0.0,126,106,93,124,112,463,653,466
2025-02-20 15:54:42.867,-516.0,-188.0,880.0,-1.0,-1.0,0.0,127,106,93,124,112,464,613,465
2025-02-20 15:54:42.885,-516.0,-197.0,872.0,0.0,-1.0,0.0,126,106,93,124,112,464,558,464
2025-02-20 15:54:42.904,-514.0,-198.0,867.0,0.0,0.0,0.0,126,105,93,126,112,464,494,466
2025-02-20 15:54:42.922,-524.0,-193.0,857.0,0.0,1.0,1.0,126,105,93,124,111,464,434,465
2025-02-20 15:54:42.941,-522.0,-180.0,857.0,0.0,-1.0,1.0,126,105,94,124,111,464,364,466
2025-02-20 15:54:42.962,-517.0,-184.0,858.0,-2.0,-1.0,1.0,126,105,93,124,111,463,307,466
2025-02-20 15:54:42.982,-520.0,-192.0,856.0,-1.0,-1.0,1.0,127,105,93,124,112,465,262,467
2025-02-20 15:54:43.000,-520.0,-177.0,875.0,0.0,-1.0,2.0,126,105,93,125,111,464,245,466
2025-02-20 15:54:43.019,-521.0,-163.0,870.0,-1.0,0.0,1.0,127,106,93,124,111,465,251,467
2025-02-20 15:54:43.035,-521.0,-167.0,877.0,-3.0,0.0,0.0,126,105,94,125,112,465,283,467
2025-02-20 15:54:43.055,-528.0,-174.0,862.0,-3.0,-1.0,0.0,126,105,93,125,111,466,329,468
2025-02-20 15:54:43.073,-524.0,-184.0,871.0,-3.0,-2.0,0.0,127,105,93,124,111,464,387,467
2025-02-20 15:54:43.096,-511.0,-180.0,868.0,-3.0,-2.0,0.0,126,105,93,125,112,465,451,466
2025-02-20 15:54:43.113,-520.0,-183.0,868.0,-3.0,-2.0,1.0,126,106,93,124,111,466,515,466
2025-02-20 15:54:43.134,-519.0,-177.0,873.0,-2.0,-2.0,0.0,126,106,93,124,112,466,585,465
2025-02-20 15:54:43.151,-517.0,-178.0,862.0,-1.0,-1.0,1.0,126,105,93,124,111,465,644,465
2025-02-20 15:54:43.170,-525.0,-181.0,863.0,-2.0,-2.0,2.0,126,106,94,125,112,465,677,465
2025-02-20 15:54:43.189,-531.0,-181.0,861.0,-4.0,-3.0,2.0,126,105,93,124,111,466,687,465
2025-02-20 15:54:43.207,-529.0,-184.0,872.0,-5.0,-4.0,2.0,127,106,93,124,112,465,681,465
2025-02-20 15:54:43.228,-516.0,-192.0,877.0,-4.0,-4.0,2.0,126,106,93,125,112,465,647,464
2025-02-20 15:54:43.248,-508.0,-192.0,883.0,-3.0,-3.0,3.0,127,105,93,124,112,465,599,465
2025-02-20 15:54:43.266,-512.0,-177.0,897.0,-4.0,-2.0,3.0,127,106,93,125,112,464,535,466
2025-02-20 15:54:43.284,-514.0,-172.0,893.0,-7.0,-3.0,1.0,126,105,93,124,112,466,465,465
2025-02-20 15:54:43.304,-486.0,-134.0,934.0,-11.0,-3.0,0.0,127,106,93,126,112,465,396,465
2025-02-20 15:54:43.322,-531.0,-181.0,890.0,-9.0,-4.0,2.0,126,105,92,125,112,467,325,466
2025-02-20 15:54:43.341,-507.0,-163.0,859.0,-8.0,-4.0,1.0,127,105,93,125,112,468,265,466
2025-02-20 15:54:43.360,-508.0,-140.0,916.0,-9.0,-3.0,1.0,126,105,92,125,111,466,237,468
2025-02-20 15:54:43.380,-510.0,-162.0,886.0,-8.0,-3.0,0.0,127,107,93,124,112,468,222,467
2025-02-20 15:54:43.399,-518.0,-185.0,861.0,-7.0,0.0,0.0,127,105,92,124,112,467,223,466
2025-02-20 15:54:43.417,-521.0,-188.0,846.0,-3.0,-1.0,1.0,126,105,93,124,108,466,255,466
2025-02-20 15:54:43.437,-537.0,-188.0,823.0,3.0,-6.0,1.0,127,105,93,126,112,467,304,467
2025-02-20 15:54:43.456,-526.0,-191.0,825.0,0.0,-1.0,-2.0,126,105,93,124,111,467,373,466
2025-02-20 15:54:43.473,-493.0,-189.0,879.0,-6.0,-2.0,-3.0,125,105,93,125,111,468,448,466
2025-02-20 15:54:43.494,-487.0,-222.0,854.0,-5.0,-3.0,-2.0,126,106,92,124,111,465,522,465
2025-02-20 15:54:43.514,-485.0,-223.0,855.0,-4.0,-3.0,0.0,126,105,93,124,112,466,593,464
2025-02-20 15:54:43.532,-483.0,-209.0,875.0,-3.0,-2.0,1.0,126,105,93,125,112,466,652,464
2025-02-20 15:54:43.551,-481.0,-195.0,883.0,-3.0,-1.0,1.0,127,105,93,124,111,466,684,464
2025-02-20 15:54:43.568,-507.0,-186.0,854.0,-3.0,0.0,1.0,126,106,93,125,112,466,698,464
2025-02-20 15:54:43.588,-521.0,-182.0,853.0,-4.0,-2.0,1.0,126,105,92,124,111,465,697,464
2025-02-20 15:54:43.608,-522.0,-171.0,856.0,-4.0,-4.0,1.0,126,106,93,124,111,464,659,464
2025-02-20 15:54:43.625,-509.0,-178.0,873.0,-3.0,-3.0,0.0,126,106,92,124,110,463,609,463
2025-02-20 15:54:43.646,-507.0,-180.0,864.0,-1.0,-1.0,0.0,125,105,92,124,111,463,543,463
2025-02-20 15:54:43.666,-514.0,-186.0,858.0,1.0,-1.0,0.0,127,105,93,124,112,464,471,465
2025-02-20 15:54:43.684,-513.0,-178.0,832.0,1.0,-6.0,-1.0,127,103,91,124,111,463,398,465
2025-02-20 15:54:43.703,-485.0,-180.0,864.0,-4.0,-6.0,-1.0,126,105,92,124,111,464,331,466
2025-02-20 15:54:43.723,-485.0,-204.0,865.0,-2.0,-7.0,-1.0,126,105,92,124,110,463,270,465
2025-02-20 15:54:43.740,-495.0,-191.0,871.0,-1.0,-6.0,-1.0,126,105,92,124,111,463,240,466
2025-02-20 15:54:43.760,-487.0,-190.0,935.0,2.0,-4.0,-1.0,127,105,92,124,111,463,224,466
2025-02-20 15:54:43.775,-494.0,-180.0,890.0,2.0,-3.0,-1.0,126,105,92,124,111,462,226,466
2025-02-20 15:54:43.797,-508.0,-175.0,907.0,1.0,-3.0,-2.0,127,105,93,124,111,464,264,467
2025-02-20 15:54:43.817,-514.0,-200.0,889.0,1.0,-3.0,-2.0,126,99,92,124,110,463,316,465
2025-02-20 15:54:43.834,-501.0,-204.0,893.0,1.0,-3.0,-1.0,127,105,92,124,110,466,386,465
2025-02-20 15:54:43.855,-502.0,-204.0,895.0,1.0,-2.0,-1.0,126,105,92,124,111,467,460,466
2025-02-20 15:54:43.874,-510.0,-195.0,891.0,2.0,-1.0,-2.0,127,106,92,124,111,468,542,465
2025-02-20 15:54:43.892,-518.0,-196.0,873.0,4.0,-2.0,-2.0,126,105,92,124,111,472,615,466
2025-02-20 15:54:43.910,-500.0,-185.0,909.0,0.0,0.0,-2.0,127,105,92,124,111,473,675,466
2025-02-20 15:54:43.926,-506.0,-208.0,880.0,-1.0,0.0,-1.0,125,105,93,124,111,474,702,466
2025-02-20 15:54:43.949,-503.0,-204.0,877.0,-2.0,0.0,0.0,126,105,92,124,111,473,706,465
2025-02-20 15:54:43.969,-497.0,-209.0,879.0,0.0,0.0,0.0,127,105,92,124,111,472,697,464
2025-02-20 15:54:43.990,-498.0,-197.0,881.0,0.0,1.0,1.0,126,105,92,124,111,469,653,463
2025-02-20 15:54:44.006,-497.0,-186.0,878.0,0.0,0.0,1.0,127,105,92,124,110,469,598,464
2025-02-20 15:54:44.024,-489.0,-181.0,869.0,-1.0,0.0,0.0,126,105,93,124,111,469,521,463
2025-02-20 15:54:44.044,-485.0,-183.0,876.0,-1.0,0.0,1.0,126,104,92,124,111,470,441,464
2025-02-20 15:54:44.064,-492.0,-175.0,864.0,1.0,0.0,1.0,126,105,93,125,111,468,356,465
2025-02-20 15:54:44.084,-497.0,-172.0,871.0,2.0,0.0,0.0,126,105,93,122,110,468,282,465
2025-02-20 15:54:44.101,-493.0,-166.0,865.0,1.0,-1.0,0.0,126,106,93,124,111,468,220,465
2025-02-20 15:54:44.121,-494.0,-163.0,873.0,0.0,-2.0,-1.0,126,105,92,124,110,467,189,466
2025-02-20 15:54:44.141,-497.0,-167.0,873.0,-1.0,-2.0,-1.0,127,105,92,124,111,467,180,466
2025-02-20 15:54:44.158,-494.0,-182.0,879.0,1.0,-1.0,-1.0,127,105,92,123,111,467,190,465
2025-02-20 15:54:44.179,-492.0,-175.0,871.0,2.0,-1.0,-1.0,126,105,92,124,110,465,235,466
2025-02-20 15:54:44.198,-498.0,-165.0,863.0,1.0,-2.0,-2.0,127,105,93,124,111,465,292,466
2025-02-20 15:54:44.212,-497.0,-171.0,864.0,-1.0,-2.0,-2.0,126,105,92,124,109,464,364,465
2025-02-20 15:54:44.236,-496.0,-185.0,858.0,-1.0,-3.0,-2.0,127,105,92,124,111,463,440,464
2025-02-20 15:54:44.253,-497.0,-180.0,855.0,0.0,-4.0,-2.0,126,105,92,124,111,464,524,463
2025-02-20 15:54:44.273,-499.0,-181.0,856.0,-1.0,-5.0,-3.0,126,105,93,124,111,466,592,464
2025-02-20 15:54:44.291,-500.0,-185.0,859.0,-1.0,-6.0,-3.0,127,105,92,124,111,464,648,464
2025-02-20 15:54:44.309,-509.0,-184.0,869.0,-1.0,-7.0,-4.0,126,105,92,124,110,462,679,462
2025-02-20 15:54:44.329,-524.0,-177.0,867.0,-1.0,-8.0,-4.0,126,105,92,124,111,463,689,464
2025-02-20 15:54:44.350,-543.0,-225.0,878.0,-3.0,-12.0,-5.0,127,105,93,125,111,463,679,464
2025-02-20 15:54:44.364,-588.0,-264.0,965.0,-4.0,-15.0,-3.0,126,106,91,126,110,464,640,463
2025-02-20 15:54:44.381,-619.0,-316.0,1288.0,0.0,-25.0,3.0,127,103,88,123,108,467,583,465
2025-02-20 15:54:44.406,-617.0,-223.0,1366.0,-20.0,-20.0,13.0,127,101,85,122,102,469,517,471
2025-02-20 15:54:44.424,-455.0,-283.0,1781.0,-80.0,8.0,13.0,127,96,78,119,93,455,445,472
2025-02-20 15:54:44.443,-379.0,-426.0,2015.0,-128.0,65.0,14.0,126,88,70,111,83,431,364,472
2025-02-20 15:54:44.465,-200.0,-550.0,1788.0,-182.0,164.0,32.0,127,77,62,100,74,423,296,463
2025-02-20 15:54:44.479,-267.0,-585.0,1530.0,-196.0,236.0,58.0,128,67,55,86,64,443,238,444
2025-02-20 15:54:44.496,-183.0,-630.0,1289.0,-216.0,287.0,92.0,128,60,49,73,56,447,216,443
2025-02-20 15:54:44.519,-126.0,-480.0,1058.0,-160.0,325.0,122.0,127,58,47,68,53,433,210,454
2025-02-20 15:54:44.538,-110.0,187.0,480.0,-120.0,342.0,119.0,119,56,47,66,52,430,221,465
2025-02-20 15:54:44.559,-644.0,687.0,-584.0,-211.0,261.0,110.0,109,52,45,65,49,410,272,468
2025-02-20 15:54:44.576,-885.0,1136.0,-1103.0,-209.0,144.0,72.0,102,53,44,61,46,396,262,473
2025-02-20 15:54:44.594,-755.0,1739.0,-1855.0,-100.0,63.0,-60.0,95,51,44,59,45,412,369,466
2025-02-20 15:54:44.616,-1289.0,2428.0,-2608.0,43.0,-98.0,-319.0,92,51,43,59,44,486,476,456
2025-02-20 15:54:44.633,-1261.0,2638.0,-2780.0,14.0,-429.0,-579.0,91,50,45,59,46,486,596,465
2025-02-20 15:54:44.654,-554.0,1990.0,-3101.0,-74.0,-845.0,-728.0,91,51,43,60,47,467,687,457
2025-02-20 15:54:44.674,3981.0,474.0,-2374.0,-192.0,-1224.0,-680.0,93,50,43,63,49,463,742,455
2025-02-20 15:54:44.691,6274.0,-4862.0,2915.0,-221.0,-735.0,-201.0,97,53,45,65,50,483,768,467
2025-02-20 15:54:44.709,5046.0,-4003.0,3345.0,-45.0,79.0,30.0,96,53,46,66,51,455,780,453
2025-02-20 15:54:44.727,1488.0,-2959.0,1263.0,170.0,331.0,6.0,99,56,47,65,51,412,816,462
2025-02-20 15:54:44.748,317.0,-1435.0,526.0,-20.0,298.0,125.0,102,55,47,65,50,414,789,462
2025-02-20 15:54:44.768,104.0,-1410.0,562.0,-153.0,145.0,143.0,102,55,48,65,51,428,719,468
2025-02-20 15:54:44.782,209.0,-1803.0,570.0,-179.0,159.0,206.0,100,56,48,67,51,374,617,483
2025-02-20 15:54:44.805,120.0,-1622.0,558.0,-91.0,187.0,251.0,101,55,49,67,52,402,485,473
2025-02-20 15:54:44.824,-55.0,-1125.0,393.0,-33.0,199.0,254.0,100,57,50,67,54,484,308,467
2025-02-20 15:54:44.842,-340.0,-772.0,300.0,0.0,149.0,241.0,100,57,49,68,55,569,254,469
2025-02-20 15:54:44.862,-143.0,-630.0,354.0,-17.0,144.0,241.0,99,55,50,69,56,547,187,458
2025-02-20 15:54:44.879,-250.0,-273.0,285.0,-26.0,166.0,258.0,97,56,50,69,57,513,189,456
2025-02-20 15:54:44.899,-340.0,-164.0,170.0,2.0,174.0,277.0,96,56,50,69,57,479,213,467
2025-02-20 15:54:44.919,-251.0,39.0,-5.0,20.0,197.0,301.0,99,56,52,71,59,500,201,481
2025-02-20 15:54:44.937,-436.0,367.0,-310.0,82.0,176.0,310.0,100,57,51,71,60,479,243,480
2025-02-20 15:54:44.957,-654.0,1170.0,-830.0,163.0,79.0,273.0,98,57,52,70,60,482,372,476
2025-02-20 15:54:44.977,-699.0,2666.0,-1283.0,200.0,-1.0,61.0,96,57,52,69,59,536,445,467
2025-02-20 15:54:44.994,-1309.0,3714.0,-1763.0,219.0,-125.0,-334.0,97,56,54,71,59,516,465,479
2025-02-20 15:54:45.014,-1165.0,3423.0,-1726.0,19.0,-389.0,-684.0,96,57,51,69,58,497,607,473
2025-02-20 15:54:45.034,835.0,1912.0,-1962.0,-128.0,-834.0,-972.0,97,56,50,69,58,402,746,453
2025-02-20 15:54:45.051,5798.0,-1712.0,609.0,-149.0,-1011.0,-826.0,101,56,50,72,61,477,781,469
2025-02-20 15:54:45.071,5846.0,-7463.0,3875.0,72.0,-293.0,-72.0,102,58,50,75,60,482,768,471
2025-02-20 15:54:45.092,3119.0,-4462.0,2135.0,188.0,306.0,181.0,100,58,49,71,59,397,760,458
2025-02-20 15:54:45.109,677.0,-1714.0,1055.0,51.0,272.0,162.0,106,58,50,70,56,375,727,458
2025-02-20 15:54:45.128,336.0,-1698.0,701.0,-94.0,161.0,196.0,112,60,52,73,57,420,671,457
2025-02-20 15:54:45.149,50.0,-2137.0,495.0,-119.0,139.0,243.0,117,61,52,73,60,488,647,471
2025-02-20 15:54:45.166,-252.0,-1432.0,356.0,-47.0,91.0,271.0,120,62,53,74,61,451,609,477
2025-02-20 15:54:45.186,-200.0,-1100.0,485.0,35.0,82.0,277.0,121,61,53,75,62,490,517,475
2025-02-20 15:54:45.202,-226.0,-449.0,518.0,8.0,107.0,278.0,122,62,54,75,63,529,374,474
2025-02-20 15:54:45.223,-366.0,-274.0,573.0,-38.0,121.0,263.0,123,62,55,77,65,480,284,478
2025-02-20 15:54:45.243,-439.0,-28.0,394.0,-54.0,116.0,238.0,123,62,56,78,67,477,260,473
2025-02-20 15:54:45.260,-270.0,-83.0,405.0,-47.0,107.0,229.0,124,61,56,79,68,429,273,465
2025-02-20 15:54:45.280,-73.0,-66.0,371.0,-36.0,155.0,262.0,125,61,56,79,68,501,271,451
2025-02-20 15:54:45.300,-144.0,192.0,319.0,-41.0,195.0,309.0,128,60,56,80,68,535,214,467
2025-02-20 15:54:45.317,-335.0,959.0,116.0,48.0,183.0,268.0,130,60,56,78,67,499,267,471
2025-02-20 15:54:45.338,-611.0,2253.0,-560.0,208.0,161.0,16.0,132,60,56,76,65,449,286,457
2025-02-20 15:54:45.358,-1183.0,3585.0,-1423.0,181.0,49.0,-278.0,134,56,54,71,57,453,369,450
2025-02-20 15:54:45.374,-1054.0,3480.0,-2341.0,4.0,-205.0,-582.0,135,52,50,68,52,444,467,432
2025-02-20 15:54:45.394,-654.0,2238.0,-3101.0,-122.0,-658.0,-854.0,138,52,48,65,51,441,609,457
2025-02-20 15:54:45.405,2388.0,1302.0,-2948.0,-258.0,-1072.0,-902.0,141,51,48,66,54,395,671,476
2025-02-20 15:54:45.433,6616.0,-4039.0,-95.0,-303.0,-991.0,-471.0,144,52,47,70,55,372,649,488
2025-02-20 15:54:45.449,6175.0,-5686.0,2846.0,-161.0,-207.0,-81.0,145,54,48,70,56,386,643,467
2025-02-20 15:54:45.466,2937.0,-4412.0,1166.0,135.0,265.0,-42.0,145,53,45,67,56,392,782,466
2025-02-20 15:54:45.489,727.0,-2702.0,-83.0,74.0,285.0,105.0,146,54,47,65,53,391,768,472
2025-02-20 15:54:45.509,182.0,-1587.0,-203.0,-50.0,105.0,172.0,145,54,47,66,52,539,750,453
2025-02-20 15:54:45.526,208.0,-2210.0,-7.0,-58.0,52.0,215.0,146,54,48,66,54,559,604,468
2025-02-20 15:54:45.546,427.0,-1701.0,465.0,-15.0,98.0,249.0,146,55,48,68,55,612,518,470
2025-02-20 15:54:45.564,194.0,-1260.0,480.0,89.0,124.0,180.0,146,54,49,68,55,600,289,479
2025-02-20 15:54:45.583,52.0,-1206.0,397.0,77.0,148.0,238.0,147,55,50,69,56,584,166,467
2025-02-20 15:54:45.604,-29.0,-152.0,285.0,43.0,143.0,267.0,147,54,50,70,57,559,186,470
2025-02-20 15:54:45.620,-131.0,-188.0,302.0,64.0,162.0,197.0,147,55,50,71,57,532,119,462
2025-02-20 15:54:45.636,-83.0,-306.0,229.0,48.0,215.0,234.0,147,54,50,70,57,503,183,463
2025-02-20 15:54:45.653,-119.0,-270.0,122.0,26.0,202.0,314.0,147,55,50,72,58,501,299,474
2025-02-20 15:54:45.678,-136.0,634.0,91.0,98.0,167.0,202.0,147,55,51,71,58,500,415,485
2025-02-20 15:54:45.697,-514.0,636.0,-124.0,93.0,165.0,137.0,147,55,50,71,58,525,380,486
2025-02-20 15:54:45.714,-576.0,493.0,-177.0,75.0,133.0,144.0,147,56,52,72,58,497,415,477
2025-02-20 15:54:45.734,-770.0,601.0,-230.0,132.0,111.0,119.0,147,55,52,70,57,471,466,462
2025-02-20 15:54:45.755,-714.0,1246.0,-508.0,315.0,135.0,-47.0,147,55,51,70,60,404,582,468
2025-02-20 15:54:45.775,-1276.0,2271.0,-840.0,233.0,74.0,-230.0,146,55,51,71,57,404,677,458
2025-02-20 15:54:45.793,-1726.0,2034.0,-1286.0,112.0,-198.0,-492.0,146,55,51,70,59,415,789,447
2025-02-20 15:54:45.813,-978.0,1475.0,-1647.0,-74.0,-542.0,-709.0,146,54,50,71,59,289,820,447
2025-02-20 15:54:45.833,3041.0,-941.0,-648.0,-209.0,-850.0,-681.0,147,55,51,73,59,488,730,459
2025-02-20 15:54:45.849,4699.0,-4686.0,1849.0,-293.0,-553.0,-344.0,148,55,50,73,60,532,659,464
2025-02-20 15:54:45.867,4262.0,-5883.0,2023.0,13.0,-2.0,-42.0,148,54,48,72,59,457,633,439
2025-02-20 15:54:45.887,1455.0,-3723.0,383.0,170.0,210.0,113.0,147,55,47,68,57,420,571,445
2025-02-20 15:54:45.907,400.0,-1657.0,264.0,12.0,44.0,195.0,147,55,47,67,55,386,506,486
2025-02-20 15:54:45.926,815.0,-2221.0,845.0,-50.0,45.0,244.0,148,56,49,67,53,417,485,528
2025-02-20 15:54:45.944,531.0,-1910.0,772.0,-30.0,162.0,335.0,147,56,50,69,56,515,416,508
2025-02-20 15:54:45.964,120.0,-1029.0,482.0,48.0,180.0,363.0,147,56,50,68,55,538,354,479
2025-02-20 15:54:45.984,83.0,-404.0,388.0,5.0,190.0,375.0,147,56,51,69,56,552,236,507
2025-02-20 15:54:46.001,157.0,-39.0,385.0,-60.0,187.0,363.0,147,56,51,69,56,508,285,507
2025-02-20 15:54:46.019,-131.0,-131.0,230.0,-82.0,220.0,315.0,146,58,55,73,59,493,305,482
2025-02-20 15:54:46.039,14.0,130.0,229.0,-20.0,250.0,275.0,146,59,55,75,64,492,295,469
2025-02-20 15:54:46.055,152.0,-1.0,124.0,77.0,272.0,270.0,146,62,58,80,69,468,299,467
2025-02-20 15:54:46.079,-59.0,431.0,101.0,151.0,286.0,274.0,144,67,61,86,75,454,332,451
2025-02-20 15:54:46.096,-282.0,894.0,-435.0,176.0,230.0,262.0,143,69,62,89,81,444,350,438
2025-02-20 15:54:46.116,-527.0,1332.0,-639.0,183.0,184.0,199.0,140,74,66,97,84,382,428,435
2025-02-20 15:54:46.136,-775.0,1655.0,-1316.0,226.0,79.0,51.0,137,77,69,104,86,391,524,442
2025-02-20 15:54:46.153,-1147.0,1826.0,-1580.0,319.0,-100.0,-139.0,136,83,72,108,91,469,560,443
2025-02-20 15:54:46.174,-1007.0,2463.0,-1838.0,233.0,-339.0,-427.0,135,91,78,112,98,455,549,445
2025-02-20 15:54:46.194,-481.0,1696.0,-1358.0,3.0,-535.0,-697.0,134,101,85,117,108,348,589,457
2025-02-20 15:54:46.210,922.0,1179.0,-909.0,-134.0,-585.0,-876.0,134,109,90,123,118,418,636,456
2025-02-20 15:54:46.230,3084.0,-860.0,331.0,-380.0,-902.0,-866.0,136,114,93,126,121,466,673,453
2025-02-20 15:54:46.251,3506.0,-3697.0,210.0,-321.0,-765.0,-506.0,136,118,96,129,123,470,663,455
2025-02-20 15:54:46.267,4583.0,-4665.0,487.0,-242.0,-359.0,-75.0,137,120,99,131,125,483,641,450
2025-02-20 15:54:46.288,2948.0,-4167.0,604.0,-124.0,6.0,185.0,138,121,98,132,126,472,570,452
2025-02-20 15:54:46.308,1039.0,-2542.0,142.0,-31.0,182.0,259.0,139,122,100,132,127,436,443,453
2025-02-20 15:54:46.324,409.0,-1593.0,340.0,179.0,101.0,337.0,140,122,99,133,128,402,283,452
2025-02-20 15:54:46.345,-129.0,-1564.0,-80.0,132.0,50.0,366.0,140,122,100,135,128,493,310,457
2025-02-20 15:54:46.361,-150.0,-1232.0,-48.0,169.0,5.0,352.0,139,120,100,134,129,520,345,465
2025-02-20 15:54:46.382,-16.0,-973.0,101.0,143.0,87.0,330.0,138,121,100,134,131,543,279,477
2025-02-20 15:54:46.401,-60.0,-504.0,-22.0,141.0,70.0,278.0,138,120,100,134,130,550,179,476
2025-02-20 15:54:46.419,-375.0,-170.0,233.0,-38.0,65.0,228.0,139,120,100,135,131,558,182,477
2025-02-20 15:54:46.439,-339.0,-102.0,-75.0,-55.0,58.0,192.0,140,121,100,134,131,537,238,474
2025-02-20 15:54:46.460,-267.0,-267.0,287.0,-31.0,44.0,193.0,138,121,101,133,131,495,337,466
2025-02-20 15:54:46.477,-255.0,-271.0,174.0,11.0,148.0,163.0,138,121,101,134,132,486,458,461
2025-02-20 15:54:46.497,-372.0,-91.0,266.0,69.0,144.0,143.0,138,121,100,134,131,472,507,460
2025-02-20 15:54:46.515,-546.0,92.0,-100.0,47.0,126.0,141.0,139,121,101,133,131,452,545,461
2025-02-20 15:54:46.532,-556.0,348.0,450.0,101.0,82.0,156.0,138,121,101,134,130,440,604,466
2025-02-20 15:54:46.553,-592.0,648.0,139.0,152.0,91.0,130.0,140,120,101,132,131,460,692,465
2025-02-20 15:54:46.570,-693.0,705.0,-385.0,236.0,57.0,75.0,137,119,101,133,130,492,659,461
2025-02-20 15:54:46.588,-1128.0,1386.0,-604.0,268.0,8.0,-55.0,137,119,101,133,132,444,656,455
2025-02-20 15:54:46.611,-1379.0,1861.0,-773.0,213.0,-129.0,-290.0,137,119,101,133,133,431,666,454
2025-02-20 15:54:46.630,-1147.0,1614.0,-628.0,80.0,-258.0,-643.0,137,121,102,134,133,411,634,457
2025-02-20 15:54:46.647,744.0,84.0,746.0,-45.0,-498.0,-886.0,133,122,103,133,134,428,587,465
2025-02-20 15:54:46.668,2975.0,-415.0,207.0,-177.0,-592.0,-842.0,136,124,102,134,133,427,512,465
2025-02-20 15:54:46.686,3815.0,-3953.0,836.0,-177.0,-434.0,-434.0,142,126,103,135,133,408,432,465
2025-02-20 15:54:46.704,3469.0,-4782.0,1125.0,-59.0,-134.0,28.0,142,126,103,135,133,442,333,465
2025-02-20 15:54:46.725,2707.0,-3334.0,714.0,79.0,140.0,216.0,143,125,102,135,133,378,228,473
2025-02-20 15:54:46.743,649.0,-1808.0,595.0,49.0,205.0,244.0,144,123,101,134,133,394,118,472
2025-02-20 15:54:46.763,244.0,-1105.0,254.0,-2.0,134.0,235.0,143,122,99,134,132,422,92,474
2025-02-20 15:54:46.783,-39.0,-1085.0,235.0,-45.0,94.0,226.0,144,119,97,133,131,445,220,475
2025-02-20 15:54:46.801,-131.0,-1198.0,299.0,-10.0,88.0,233.0,143,113,91,132,129,520,306,468
2025-02-20 15:54:46.817,-186.0,-799.0,324.0,-12.0,73.0,231.0,143,108,86,128,126,538,308,449
2025-02-20 15:54:46.837,-149.0,-707.0,522.0,-43.0,71.0,238.0,144,102,81,123,118,537,429,454
2025-02-20 15:54:46.854,-124.0,-468.0,563.0,-82.0,100.0,254.0,144,93,75,117,106,557,413,451
2025-02-20 15:54:46.878,-237.0,-488.0,460.0,-165.0,135.0,285.0,144,88,72,112,95,507,444,462
2025-02-20 15:54:46.895,-41.0,-482.0,549.0,-144.0,178.0,333.0,144,83,70,106,84,454,623,467
2025-02-20 15:54:46.914,3.0,-565.0,562.0,-85.0,216.0,359.0,144,78,70,105,79,427,721,471
2025-02-20 15:54:46.933,37.0,-291.0,95.0,62.0,224.0,375.0,144,74,67,103,78,431,816,469
2025-02-20 15:54:46.952,-258.0,385.0,-192.0,214.0,198.0,306.0,142,67,61,97,73,446,715,469
2025-02-20 15:54:46.971,-489.0,1100.0,-698.0,313.0,149.0,174.0,142,64,59,84,64,481,746,470
2025-02-20 15:54:46.988,-734.0,1832.0,-1089.0,312.0,100.0,1.0,140,60,56,85,59,473,790,461
2025-02-20 15:54:47.008,-993.0,2262.0,-1340.0,261.0,-15.0,-207.0,138,56,53,78,54,487,738,446
2025-02-20 15:54:47.029,-1467.0,2363.0,-1572.0,187.0,-215.0,-455.0,136,53,50,73,50,448,623,439
2025-02-20 15:54:47.046,-1184.0,1896.0,-1929.0,62.0,-584.0,-765.0,135,51,47,71,49,447,450,451
2025-02-20 15:54:47.066,1218.0,1449.0,-1941.0,-111.0,-952.0,-920.0,136,50,47,72,53,451,308,464
2025-02-20 15:54:47.086,5467.0,-1845.0,-616.0,-315.0,-1085.0,-565.0,143,52,48,78,56,456,259,466
2025-02-20 15:54:47.104,5614.0,-5526.0,2385.0,-416.0,-456.0,-154.0,145,53,48,80,57,442,154,458
2025-02-20 15:54:47.124,3654.0,-5032.0,1410.0,76.0,141.0,-10.0,144,52,47,76,57,410,55,457
2025-02-20 15:54:47.143,952.0,-2472.0,-273.0,203.0,301.0,84.0,144,53,47,74,53,365,34,463
2025-02-20 15:54:47.160,-111.0,-1123.0,-376.0,-37.0,108.0,166.0,144,53,47,75,50,404,84,465
2025-02-20 15:54:47.181,263.0,-1974.0,-7.0,-71.0,18.0,147.0,145,54,49,76,53,423,132,473
2025-02-20 15:54:47.200,283.0,-2101.0,255.0,-11.0,50.0,226.0,145,56,50,75,54,412,142,480
2025-02-20 15:54:47.217,407.0,-1444.0,111.0,16.0,121.0,280.0,145,55,50,75,55,419,202,483
2025-02-20 15:54:47.238,405.0,-966.0,308.0,113.0,120.0,263.0,145,55,52,77,54,464,351,485
2025-02-20 15:54:47.255,59.0,-656.0,314.0,92.0,130.0,212.0,144,55,52,77,55,533,561,486
2025-02-20 15:54:47.275,-160.0,-413.0,258.0,20.0,130.0,207.0,145,55,52,79,56,512,659,476
2025-02-20 15:54:47.295,-157.0,-585.0,247.0,-2.0,113.0,240.0,146,55,53,79,56,480,770,461
2025-02-20 15:54:47.309,-110.0,-336.0,346.0,36.0,119.0,228.0,145,55,53,81,56,482,847,458
2025-02-20 15:54:47.332,-204.0,-46.0,326.0,70.0,170.0,158.0,145,56,54,81,57,455,831,461
2025-02-20 15:54:47.350,-504.0,123.0,210.0,47.0,187.0,153.0,145,55,54,80,57,525,827,464
2025-02-20 15:54:47.370,-637.0,156.0,-28.0,33.0,123.0,141.0,144,57,54,80,58,529,701,465
2025-02-20 15:54:47.389,-823.0,921.0,-196.0,21.0,86.0,79.0,143,56,53,79,57,512,699,461
2025-02-20 15:54:47.410,-1132.0,1101.0,-406.0,33.0,36.0,-37.0,142,56,54,79,57,531,670,448
2025-02-20 15:54:47.423,-1101.0,1260.0,-383.0,55.0,13.0,-119.0,142,57,53,78,55,568,587,443
2025-02-20 15:54:47.447,-1456.0,1599.0,-914.0,134.0,-83.0,-267.0,142,56,53,79,55,515,451,446
2025-02-20 15:54:47.467,-1599.0,1969.0,-1319.0,156.0,-291.0,-453.0,142,55,53,79,54,414,341,449
2025-02-20 15:54:47.484,393.0,1604.0,-735.0,17.0,-537.0,-659.0,143,55,53,78,54,374,202,447
2025-02-20 15:54:47.503,2953.0,-335.0,751.0,-326.0,-595.0,-568.0,144,56,53,80,55,433,103,451
2025-02-20 15:54:47.521,3991.0,-3613.0,1533.0,-469.0,-328.0,-288.0,145,55,53,81,55,452,76,457
2025-02-20 15:54:47.540,3176.0,-5212.0,990.0,-241.0,47.0,-89.0,145,55,54,82,55,435,27,471
2025-02-20 15:54:47.561,1773.0,-3885.0,-492.0,50.0,188.0,65.0,143,55,53,80,55,452,36,492
2025-02-20 15:54:47.578,453.0,-1999.0,-950.0,12.0,134.0,154.0,143,55,54,78,54,490,245,506
2025-02-20 15:54:47.598,100.0,-1625.0,-409.0,3.0,35.0,154.0,143,57,54,78,55,509,384,507
2025-02-20 15:54:47.616,335.0,-2067.0,57.0,-5.0,-11.0,202.0,143,57,56,80,56,499,456,490
2025-02-20 15:54:47.635,577.0,-1771.0,291.0,44.0,71.0,239.0,143,59,58,85,57,459,590,471
2025-02-20 15:54:47.656,500.0,-1448.0,465.0,77.0,120.0,269.0,141,61,61,85,58,417,605,464
2025-02-20 15:54:47.673,360.0,-1180.0,482.0,66.0,165.0,296.0,142,62,62,86,61,423,728,478
2025-02-20 15:54:47.692,70.0,-886.0,329.0,58.0,186.0,320.0,142,64,64,87,61,436,892,469
2025-02-20 15:54:47.713,299.0,-672.0,327.0,80.0,206.0,359.0,142,69,68,88,62,466,1017,462
2025-02-20 15:54:47.730,310.0,-416.0,-91.0,68.0,216.0,388.0,141,77,72,89,64,496,958,477
2025-02-20 15:54:47.750,-22.0,24.0,11.0,88.0,165.0,406.0,142,84,76,90,65,498,868,467
2025-02-20 15:54:47.770,-83.0,171.0,89.0,128.0,191.0,381.0,140,95,81,93,67,487,744,457
2025-02-20 15:54:47.788,-139.0,365.0,-97.0,185.0,204.0,327.0,141,100,84,96,69,477,612,453
2025-02-20 15:54:47.808,-332.0,650.0,-319.0,283.0,226.0,281.0,140,103,87,96,70,472,526,452
2025-02-20 15:54:47.828,-647.0,1241.0,-936.0,310.0,191.0,208.0,141,105,88,96,71,477,394,466
2025-02-20 15:54:47.846,-1002.0,1742.0,-1603.0,225.0,27.0,42.0,140,107,90,95,71,493,292,465
2025-02-20 15:54:47.865,-1349.0,2133.0,-1971.0,115.0,-182.0,-177.0,140,108,92,92,68,459,165,457
2025-02-20 15:54:47.885,-1417.0,2270.0,-2024.0,59.0,-426.0,-494.0,138,111,94,91,64,440,11,433
2025-02-20 15:54:47.902,-485.0,2415.0,-1572.0,-9.0,-798.0,-715.0,136,114,95,94,68,411,1,432
2025-02-20 15:54:47.922,2551.0,1895.0,-1128.0,-167.0,-1087.0,-881.0,135,121,97,98,72,395,2,437
2025-02-20 15:54:47.940,4543.0,-1972.0,538.0,-468.0,-1109.0,-701.0,134,127,97,98,75,369,103,446
2025-02-20 15:54:47.957,4738.0,-4616.0,297.0,-302.0,-628.0,-264.0,134,129,97,98,76,396,264,448
2025-02-20 15:54:47.979,4508.0,-4565.0,809.0,-11.0,-17.0,181.0,134,130,99,97,74,371,482,438
2025-02-20 15:54:47.997,2261.0,-2794.0,1117.0,174.0,273.0,190.0,135,130,98,97,66,380,639,448
2025-02-20 15:54:48.016,574.0,-1233.0,422.0,101.0,267.0,160.0,135,130,98,97,62,408,743,456
2025-02-20 15:54:48.036,309.0,-1197.0,335.0,-40.0,164.0,203.0,135,131,99,97,61,435,837,453
2025-02-20 15:54:48.053,13.0,-1296.0,329.0,-48.0,111.0,228.0,134,131,99,94,63,366,811,464
2025-02-20 15:54:48.074,197.0,-1258.0,627.0,2.0,154.0,227.0,133,130,99,95,62,374,771,476
2025-02-20 15:54:48.093,64.0,-1069.0,549.0,90.0,221.0,233.0,133,131,101,96,63,464,685,466
2025-02-20 15:54:48.110,6.0,-776.0,375.0,123.0,253.0,265.0,133,131,101,95,64,476,657,475
2025-02-20 15:54:48.130,7.0,-475.0,440.0,112.0,269.0,286.0,134,131,101,94,65,467,641,485
2025-02-20 15:54:48.148,-27.0,-270.0,210.0,91.0,274.0,310.0,134,131,100,92,67,428,585,479
2025-02-20 15:54:48.168,-151.0,-354.0,123.0,111.0,298.0,327.0,136,131,101,92,67,429,587,477
2025-02-20 15:54:48.186,-373.0,130.0,-17.0,124.0,278.0,327.0,135,131,101,92,67,502,437,480
2025-02-20 15:54:48.205,-167.0,98.0,-700.0,31.0,221.0,271.0,136,132,102,91,68,546,274,476
2025-02-20 15:54:48.226,-790.0,492.0,-487.0,86.0,163.0,194.0,137,130,102,92,67,508,200,474
2025-02-20 15:54:48.244,-917.0,863.0,-625.0,126.0,85.0,97.0,136,129,102,91,67,517,96,465
2025-02-20 15:54:48.261,-1010.0,1657.0,-847.0,49.0,-35.0,-33.0,137,130,102,89,67,470,74,457
2025-02-20 15:54:48.283,-1274.0,1657.0,-1031.0,-7.0,-192.0,-283.0,136,130,102,88,67,370,84,455
2025-02-20 15:54:48.302,-1357.0,2094.0,-1032.0,-25.0,-410.0,-557.0,136,131,104,87,68,383,134,460
2025-02-20 15:54:48.320,-398.0,2477.0,-931.0,-169.0,-648.0,-835.0,135,131,105,88,69,370,190,452
2025-02-20 15:54:48.339,2243.0,1430.0,-775.0,-439.0,-871.0,-976.0,131,132,104,89,73,371,386,457
2025-02-20 15:54:48.358,3715.0,-3445.0,-280.0,-330.0,-710.0,-700.0,125,133,103,89,74,385,461,456
2025-02-20 15:54:48.377,4792.0,-5135.0,-24.0,-67.0,-321.0,-41.0,124,132,102,91,75,472,542,445
2025-02-20 15:54:48.397,3868.0,-3667.0,532.0,172.0,133.0,163.0,126,132,103,90,72,429,660,446
2025-02-20 15:54:48.414,1429.0,-1736.0,479.0,224.0,274.0,144.0,127,131,102,90,66,404,678,440
2025-02-20 15:54:48.434,216.0,-1359.0,391.0,25.0,192.0,172.0,129,132,101,91,64,416,850,430
2025-02-20 15:54:48.454,246.0,-1352.0,338.0,-69.0,136.0,230.0,129,130,100,91,65,418,800,452
2025-02-20 15:54:48.471,189.0,-1507.0,370.0,-55.0,142.0,263.0,131,130,100,92,68,469,816,456
2025-02-20 15:54:48.489,179.0,-1240.0,484.0,-27.0,159.0,288.0,133,129,100,96,70,445,806,461
2025-02-20 15:54:48.510,99.0,-1102.0,443.0,-7.0,169.0,299.0,134,126,96,98,72,485,799,465
2025-02-20 15:54:48.528,-150.0,-845.0,508.0,17.0,196.0,308.0,138,120,90,99,74,514,774,477
2025-02-20 15:54:48.549,-100.0,-537.0,505.0,-37.0,198.0,347.0,139,110,80,98,74,519,526,488
2025-02-20 15:54:48.569,144.0,-533.0,328.0,-72.0,190.0,385.0,140,101,71,96,73,525,433,483
2025-02-20 15:54:48.585,-96.0,-354.0,370.0,-28.0,202.0,423.0,141,93,66,93,70,487,340,480
2025-02-20 15:54:48.606,20.0,-169.0,180.0,65.0,207.0,413.0,141,83,61,90,67,447,196,470
2025-02-20 15:54:48.623,-204.0,97.0,-250.0,205.0,238.0,388.0,142,73,61,89,67,471,94,467
2025-02-20 15:54:48.643,-452.0,1137.0,-438.0,267.0,189.0,285.0,142,63,57,76,66,474,59,458
2025-02-20 15:54:48.663,-691.0,2197.0,-767.0,267.0,39.0,109.0,140,61,55,75,59,500,44,460
2025-02-20 15:54:48.680,-565.0,3083.0,-1371.0,175.0,-104.0,-196.0,138,57,53,73,55,470,77,461
2025-02-20 15:54:48.700,-1048.0,2625.0,-1796.0,77.0,-168.0,-437.0,133,55,49,70,52,425,172,458
2025-02-20 15:54:48.720,-1256.0,2277.0,-1790.0,10.0,-436.0,-637.0,133,54,48,69,52,411,314,462
2025-02-20 15:54:48.738,532.0,2299.0,-1634.0,-136.0,-705.0,-864.0,136,53,48,72,53,424,452,465
2025-02-20 15:54:48.758,3174.0,447.0,-1400.0,-320.0,-907.0,-871.0,137,54,48,75,55,454,527,464
2025-02-20 15:54:48.777,5344.0,-4425.0,976.0,-361.0,-728.0,-371.0,143,55,49,78,58,456,563,462
2025-02-20 15:54:48.794,4786.0,-5548.0,2155.0,-110.0,-81.0,-101.0,143,56,49,78,58,447,641,436
2025-02-20 15:54:48.815,2323.0,-4209.0,353.0,189.0,221.0,40.0,145,57,48,74,56,405,664,431
2025-02-20 15:54:48.832,519.0,-1940.0,-147.0,59.0,190.0,160.0,142,57,49,72,54,420,700,451
2025-02-20 15:54:48.852,341.0,-1331.0,-53.0,-7.0,11.0,172.0,143,58,49,71,53,473,801,460
2025-02-20 15:54:48.872,311.0,-2302.0,473.0,-38.0,73.0,226.0,143,58,50,72,56,350,716,464
2025-02-20 15:54:48.889,363.0,-1993.0,712.0,16.0,72.0,302.0,144,59,51,76,57,447,696,471
2025-02-20 15:54:48.909,136.0,-1273.0,710.0,41.0,135.0,330.0,144,59,51,77,57,462,588,470
2025-02-20 15:54:48.930,111.0,-456.0,454.0,102.0,126.0,243.0,144,60,53,74,57,492,483,468
2025-02-20 15:54:48.945,-340.0,-354.0,521.0,58.0,147.0,217.0,144,60,53,75,57,505,473,468
2025-02-20 15:54:48.967,-262.0,-352.0,329.0,-4.0,135.0,265.0,144,58,53,76,57,520,364,459
2025-02-20 15:54:48.987,-265.0,-504.0,194.0,-59.0,144.0,294.0,144,60,53,75,59,515,315,462
2025-02-20 15:54:49.003,-158.0,-10.0,273.0,28.0,145.0,221.0,144,59,54,76,59,489,272,470
2025-02-20 15:54:49.024,-114.0,-45.0,231.0,86.0,195.0,189.0,144,60,55,77,59,477,210,481
2025-02-20 15:54:49.040,-449.0,17.0,155.0,54.0,177.0,232.0,144,60,55,76,60,474,115,479
2025-02-20 15:54:49.060,-583.0,231.0,-201.0,64.0,126.0,210.0,144,61,55,77,60,442,80,473
2025-02-20 15:54:49.079,-554.0,582.0,48.0,114.0,73.0,152.0,144,62,56,75,56,472,181,460
2025-02-20 15:54:49.098,-564.0,1175.0,-188.0,204.0,133.0,-5.0,143,62,56,76,59,526,343,469
2025-02-20 15:54:49.118,-1041.0,1994.0,-891.0,180.0,78.0,-127.0,141,62,55,75,59,514,474,455
2025-02-20 15:54:49.139,-1580.0,2665.0,-1526.0,115.0,-66.0,-411.0,137,61,56,75,58,442,551,447
2025-02-20 15:54:49.156,-1489.0,2816.0,-2038.0,-65.0,-357.0,-717.0,139,61,55,76,57,465,620,452
2025-02-20 15:54:49.176,400.0,2332.0,-2244.0,-335.0,-739.0,-912.0,141,60,54,78,59,483,649,469
2025-02-20 15:54:49.195,4335.0,-1606.0,-1758.0,-469.0,-955.0,-692.0,143,59,56,80,61,418,617,479
2025-02-20 15:54:49.213,5097.0,-5644.0,1120.0,-333.0,-578.0,-306.0,142,60,55,81,61,415,595,467
2025-02-20 15:54:49.233,3897.0,-5294.0,1432.0,-2.0,48.0,-48.0,138,62,55,79,61,409,588,466
2025-02-20 15:54:49.253,1802.0,-3403.0,-353.0,251.0,283.0,74.0,137,62,55,75,60,430,535,463
2025-02-20 15:54:49.270,335.0,-1683.0,-905.0,62.0,266.0,152.0,138,63,54,75,55,500,623,468
2025-02-20 15:54:49.290,196.0,-1580.0,-865.0,38.0,122.0,157.0,139,64,55,76,58,526,753,473
2025-02-20 15:54:49.306,275.0,-1934.0,70.0,4.0,59.0,220.0,138,67,57,78,59,458,626,473
2025-02-20 15:54:49.327,201.0,-1869.0,419.0,-6.0,100.0,265.0,139,67,59,80,59,391,666,483
2025-02-20 15:54:49.347,41.0,-1189.0,217.0,121.0,157.0,290.0,138,72,61,81,60,501,546,510
2025-02-20 15:54:49.364,182.0,-848.0,543.0,119.0,125.0,294.0,139,75,62,80,64,529,403,511
2025-02-20 15:54:49.383,98.0,-588.0,360.0,121.0,161.0,290.0,139,79,63,83,67,489,392,520
2025-02-20 15:54:49.405,-86.0,-428.0,300.0,101.0,205.0,288.0,139,84,65,85,69,456,294,506
2025-02-20 15:54:49.422,-293.0,-86.0,246.0,45.0,298.0,280.0,140,86,66,86,71,476,276,495
2025-02-20 15:54:49.441,-319.0,-60.0,349.0,89.0,263.0,291.0,139,85,67,87,71,468,340,477
2025-02-20 15:54:49.462,-106.0,325.0,-92.0,120.0,295.0,274.0,137,84,67,87,71,444,272,466
2025-02-20 15:54:49.479,-554.0,403.0,-263.0,142.0,256.0,293.0,134,82,66,87,70,458,423,453
2025-02-20 15:54:49.497,-470.0,787.0,-643.0,203.0,177.0,276.0,133,74,65,86,70,488,403,450
2025-02-20 15:54:49.515,-586.0,929.0,-681.0,252.0,109.0,202.0,129,67,61,84,67,526,525,447
2025-02-20 15:54:49.536,-935.0,1919.0,-1210.0,172.0,42.0,-25.0,125,61,56,75,62,452,613,443
2025-02-20 15:54:49.556,-1340.0,3096.0,-1875.0,236.0,-149.0,-332.0,114,58,53,71,59,491,677,452
2025-02-20 15:54:49.574,-1270.0,2366.0,-2417.0,173.0,-506.0,-611.0,104,55,51,69,58,477,729,433
2025-02-20 15:54:49.593,446.0,1208.0,-2676.0,123.0,-972.0,-722.0,98,52,49,68,59,402,690,438
2025-02-20 15:54:49.614,4143.0,-198.0,433.0,57.0,-1180.0,-593.0,102,53,49,70,59,527,632,446
2025-02-20 15:54:49.630,5263.0,-4039.0,4252.0,-101.0,-473.0,-120.0,106,53,49,72,59,553,577,453
2025-02-20 15:54:49.649,3455.0,-3889.0,3840.0,98.0,166.0,-38.0,100,53,48,70,59,469,545,448
2025-02-20 15:54:49.671,872.0,-2015.0,1427.0,177.0,289.0,32.0,99,53,47,65,56,394,536,436
2025-02-20 15:54:49.688,-69.0,-705.0,1010.0,-141.0,162.0,95.0,101,54,50,68,55,467,614,436
2025-02-20 15:54:49.707,96.0,-1905.0,905.0,-228.0,98.0,115.0,103,54,50,69,56,499,617,445
2025-02-20 15:54:49.724,52.0,-1706.0,856.0,-171.0,105.0,163.0,104,55,50,71,58,465,323,452
2025-02-20 15:54:49.745,-256.0,-1329.0,767.0,-92.0,120.0,176.0,105,55,51,72,61,446,177,469
2025-02-20 15:54:49.763,0.0,-1084.0,916.0,-89.0,138.0,180.0,104,56,52,73,59,433,197,468
2025-02-20 15:54:49.782,-33.0,-851.0,882.0,-147.0,179.0,194.0,105,56,54,73,59,442,177,463
2025-02-20 15:54:49.801,-363.0,-778.0,498.0,-136.0,174.0,202.0,105,56,53,72,59,453,106,476
2025-02-20 15:54:49.822,-515.0,-672.0,287.0,-58.0,134.0,189.0,106,55,53,73,59,491,180,509
2025-02-20 15:54:49.839,-159.0,-638.0,271.0,-28.0,141.0,191.0,106,56,54,72,59,517,297,514
2025-02-20 15:54:49.859,-246.0,-343.0,211.0,-25.0,186.0,214.0,104,57,54,73,60,489,311,493
2025-02-20 15:54:49.879,-369.0,-264.0,84.0,-1.0,193.0,223.0,106,56,53,72,61,511,388,480
2025-02-20 15:54:49.897,-705.0,-17.0,-166.0,36.0,160.0,218.0,104,58,54,72,60,488,479,461
2025-02-20 15:54:49.917,-770.0,244.0,-296.0,74.0,96.0,194.0,105,57,54,71,60,502,609,444
2025-02-20 15:54:49.934,-487.0,581.0,-361.0,85.0,60.0,167.0,104,55,54,72,59,481,688,452
2025-02-20 15:54:49.954,-603.0,848.0,-450.0,90.0,37.0,123.0,103,57,53,71,60,442,784,468
2025-02-20 15:54:49.974,-941.0,1186.0,-1010.0,182.0,2.0,-12.0,100,57,54,71,59,483,859,458
2025-02-20 15:54:49.992,-1446.0,1802.0,-1705.0,276.0,-137.0,-248.0,97,57,54,69,58,505,872,452
2025-02-20 15:54:50.011,-1880.0,1982.0,-2566.0,253.0,-453.0,-437.0,96,56,53,68,56,527,819,455
2025-02-20 15:54:50.031,383.0,1334.0,-2127.0,219.0,-840.0,-532.0,98,56,53,69,57,541,670,468
2025-02-20 15:54:50.048,3439.0,-230.0,-422.0,199.0,-1053.0,-397.0,106,56,53,70,61,565,493,489
2025-02-20 15:54:50.068,4454.0,-3196.0,4298.0,321.0,-590.0,-81.0,113,57,55,73,62,517,365,495
2025-02-20 15:54:50.088,3053.0,-1080.0,4700.0,129.0,88.0,-8.0,116,58,55,73,63,397,281,486
2025-02-20 15:54:50.105,1204.0,-1024.0,2993.0,-51.0,267.0,-19.0,116,58,54,72,62,413,222,460
2025-02-20 15:54:50.126,353.0,-1162.0,1928.0,-167.0,289.0,51.0,117,60,55,73,63,504,183,457
2025-02-20 15:54:50.145,75.0,-1189.0,1102.0,-224.0,286.0,89.0,123,61,56,77,65,476,262,459
2025-02-20 15:54:50.164,-152.0,-1572.0,835.0,-174.0,262.0,120.0,126,63,59,79,65,364,288,470
2025-02-20 15:54:50.174,-350.0,-1423.0,660.0,-45.0,252.0,155.0,128,66,60,80,66,388,201,476
2025-02-20 15:54:50.200,-191.0,-959.0,510.0,28.0,256.0,186.0,128,73,59,80,67,429,174,480
2025-02-20 15:54:50.220,-217.0,-507.0,519.0,36.0,235.0,180.0,128,87,59,81,67,420,222,483
2025-02-20 15:54:50.241,-558.0,-383.0,476.0,55.0,226.0,165.0,128,94,57,81,68,475,314,490
2025-02-20 15:54:50.257,-428.0,-312.0,507.0,62.0,249.0,165.0,127,95,58,80,69,534,413,467
2025-02-20 15:54:50.277,-319.0,-188.0,450.0,72.0,283.0,160.0,128,93,58,81,70,538,547,470
2025-02-20 15:54:50.297,-286.0,-18.0,-2.0,85.0,267.0,146.0,127,92,56,80,70,500,577,473
2025-02-20 15:54:50.314,-648.0,216.0,-406.0,99.0,226.0,141.0,126,92,57,79,70,457,640,486
2025-02-20 15:54:50.335,-1077.0,302.0,-643.0,111.0,98.0,66.0,124,91,55,77,68,437,757,454
2025-02-20 15:54:50.355,-1017.0,492.0,-859.0,136.0,-45.0,-23.0,119,92,55,77,66,439,848,447
2025-02-20 15:54:50.370,-1006.0,548.0,-1169.0,175.0,-166.0,-111.0,112,90,53,75,65,454,873,440
2025-02-20 15:54:50.392,-1113.0,500.0,-1902.0,167.0,-418.0,-167.0,103,91,53,74,62,443,827,447
2025-02-20 15:54:50.412,-516.0,505.0,-2094.0,215.0,-713.0,-165.0,96,92,52,73,62,496,727,462
2025-02-20 15:54:50.429,1145.0,-43.0,-1416.0,243.0,-891.0,-80.0,95,94,52,73,62,513,543,467
2025-02-20 15:54:50.449,1935.0,-411.0,-4.0,264.0,-859.0,-3.0,96,99,52,74,64,562,390,460
2025-02-20 15:54:50.466,2145.0,-43.0,1526.0,305.0,-732.0,31.0,101,101,51,73,63,554,262,459
2025-02-20 15:54:50.486,2508.0,188.0,2647.0,286.0,-481.0,60.0,108,105,51,75,65,497,139,451
2025-02-20 15:54:50.507,2029.0,813.0,3592.0,155.0,-206.0,58.0,113,109,51,73,66,373,80,460
2025-02-20 15:54:50.523,1506.0,739.0,3462.0,-39.0,93.0,19.0,115,111,52,75,65,343,51,462
2025-02-20 15:54:50.544,1021.0,406.0,2560.0,-138.0,259.0,4.0,116,112,51,76,68,319,109,449
2025-02-20 15:54:50.564,547.0,91.0,1566.0,-122.0,307.0,-18.0,113,111,51,77,68,374,204,455
2025-02-20 15:54:50.581,407.0,-203.0,1365.0,-78.0,304.0,-8.0,112,111,53,77,68,489,260,471
2025-02-20 15:54:50.601,329.0,-235.0,1322.0,-100.0,324.0,32.0,112,110,52,77,68,534,341,470
2025-02-20 15:54:50.618,118.0,-48.0,1031.0,-143.0,311.0,78.0,107,109,52,77,68,531,370,467
2025-02-20 15:54:50.638,-40.0,-10.0,1024.0,-156.0,270.0,56.0,105,109,53,77,67,521,456,460
2025-02-20 15:54:50.658,55.0,-149.0,860.0,-153.0,299.0,55.0,105,107,53,77,66,499,574,468
2025-02-20 15:54:50.675,45.0,-162.0,742.0,-139.0,336.0,78.0,106,109,54,78,67,490,714,450
2025-02-20 15:54:50.691,-160.0,-162.0,567.0,-132.0,335.0,109.0,107,108,54,78,68,446,790,446
2025-02-20 15:54:50.715,-287.0,-171.0,357.0,-119.0,301.0,138.0,104,109,55,78,67,385,837,465
2025-02-20 15:54:50.731,-378.0,-183.0,241.0,-99.0,264.0,156.0,102,109,54,77,66,432,833,471
2025-02-20 15:54:50.753,-205.0,27.0,282.0,-83.0,250.0,163.0,104,110,54,77,65,480,771,484
2025-02-20 15:54:50.773,-477.0,206.0,161.0,-117.0,237.0,156.0,106,110,55,78,65,491,719,486
2025-02-20 15:54:50.790,-744.0,124.0,-107.0,-106.0,182.0,136.0,106,108,55,77,66,477,616,488
2025-02-20 15:54:50.809,-657.0,300.0,-294.0,-69.0,117.0,112.0,105,108,55,75,65,451,529,486
2025-02-20 15:54:50.824,-693.0,477.0,-600.0,-15.0,79.0,69.0,105,105,55,77,64,481,420,475
2025-02-20 15:54:50.847,-1198.0,1255.0,-1472.0,67.0,-15.0,-59.0,100,104,54,75,64,541,308,466
2025-02-20 15:54:50.859,-2356.0,2087.0,-3284.0,152.0,-347.0,-292.0,92,103,52,69,58,491,190,457
2025-02-20 15:54:50.886,-765.0,1515.0,-4118.0,311.0,-1013.0,-443.0,86,106,52,69,56,429,161,453
2025-02-20 15:54:50.903,3515.0,839.0,-2174.0,513.0,-1317.0,-305.0,87,106,54,70,59,434,155,464
2025-02-20 15:54:50.924,4726.0,-921.0,2258.0,598.0,-1166.0,-86.0,98,109,53,72,62,466,190,465
2025-02-20 15:54:50.941,4771.0,485.0,5751.0,327.0,-402.0,123.0,108,112,56,75,67,507,224,460
2025-02-20 15:54:50.962,2813.0,1707.0,5928.0,-237.0,135.0,32.0,109,112,56,77,67,476,289,450
2025-02-20 15:54:50.981,1854.0,563.0,2914.0,-474.0,432.0,-11.0,108,110,54,78,67,525,366,453
2025-02-20 15:54:50.998,928.0,-246.0,1492.0,-387.0,493.0,-26.0,109,104,56,77,67,495,437,458
2025-02-20 15:54:51.016,350.0,-590.0,1075.0,-292.0,492.0,-6.0,110,100,58,77,66,467,587,461
2025-02-20 15:54:51.037,-19.0,-548.0,777.0,-274.0,458.0,44.0,111,99,57,79,67,401,744,466
2025-02-20 15:54:51.054,-93.0,-336.0,644.0,-321.0,416.0,116.0,110,101,58,79,67,482,810,481
2025-02-20 15:54:51.076,-161.0,-345.0,555.0,-349.0,351.0,134.0,112,103,58,78,67,472,763,481
2025-02-20 15:54:51.096,-110.0,-554.0,356.0,-285.0,326.0,142.0,117,103,58,79,67,371,714,472
2025-02-20 15:54:51.114,98.0,-524.0,399.0,-204.0,363.0,176.0,124,104,59,82,71,427,700,488
2025-02-20 15:54:51.133,-103.0,-351.0,214.0,-113.0,399.0,195.0,123,105,60,83,75,473,647,494
2025-02-20 15:54:51.149,-368.0,-157.0,-222.0,-13.0,357.0,179.0,124,105,64,86,77,524,587,488
2025-02-20 15:54:51.170,-315.0,-96.0,-605.0,158.0,335.0,219.0,121,105,68,87,80,471,502,479
2025-02-20 15:54:51.188,-682.0,470.0,-690.0,184.0,195.0,161.0,114,104,70,96,85,446,443,467
2025-02-20 15:54:51.204,-846.0,165.0,-303.0,58.0,103.0,117.0,110,102,72,104,89,453,360,462
2025-02-20 15:54:51.227,-647.0,657.0,-983.0,14.0,90.0,52.0,108,102,76,109,94,464,291,462
2025-02-20 15:54:51.248,-660.0,636.0,-1084.0,14.0,-23.0,-12.0,109,101,78,110,101,470,219,459
2025-02-20 15:54:51.265,-855.0,887.0,-1724.0,-27.0,-188.0,-129.0,107,102,80,114,109,527,156,447
2025-02-20 15:54:51.285,-1236.0,1158.0,-1658.0,-46.0,-438.0,-357.0,109,105,83,115,115,513,101,444
2025-02-20 15:54:51.295,-1019.0,1402.0,-1194.0,-186.0,-569.0,-593.0,112,110,87,118,123,487,98,467
2025-02-20 15:54:51.322,-251.0,1901.0,-1700.0,-243.0,-679.0,-895.0,115,115,91,123,127,473,150,482
2025-02-20 15:54:51.339,2951.0,424.0,-1131.0,-634.0,-1063.0,-935.0,114,122,94,127,128,429,232,479
2025-02-20 15:54:51.363,3479.0,-2793.0,1152.0,-554.0,-834.0,-661.0,113,126,98,129,129,470,309,463
2025-02-20 15:54:51.379,3832.0,-4124.0,-395.0,-334.0,-431.0,-109.0,113,129,100,131,131,467,390,465
2025-02-20 15:54:51.399,3260.0,-4346.0,339.0,36.0,-161.0,156.0,115,129,100,132,131,446,534,470
2025-02-20 15:54:51.416,1683.0,-2497.0,443.0,21.0,212.0,168.0,117,129,101,132,132,397,540,464
2025-02-20 15:54:51.437,-54.0,-1554.0,-151.0,255.0,236.0,247.0,118,129,101,132,131,426,625,474
2025-02-20 15:54:51.454,-107.0,-982.0,41.0,190.0,178.0,264.0,118,128,100,133,130,491,674,472
2025-02-20 15:54:51.474,-196.0,-1035.0,446.0,183.0,173.0,211.0,118,128,102,133,131,515,749,469
2025-02-20 15:54:51.494,-166.0,-756.0,389.0,104.0,148.0,154.0,118,129,102,132,131,422,874,474
2025-02-20 15:54:51.514,21.0,-873.0,348.0,83.0,94.0,141.0,119,128,101,133,132,433,881,448
2025-02-20 15:54:51.531,-11.0,-936.0,369.0,-23.0,66.0,163.0,119,128,102,134,132,444,761,453
2025-02-20 15:54:51.551,128.0,-1007.0,483.0,-48.0,97.0,187.0,119,128,101,133,132,449,566,480
2025-02-20 15:54:51.571,-205.0,-744.0,671.0,-32.0,148.0,207.0,119,129,102,133,132,510,459,484
2025-02-20 15:54:51.589,-187.0,-661.0,508.0,-19.0,153.0,206.0,119,129,101,133,132,492,253,484
2025-02-20 15:54:51.608,-225.0,-382.0,161.0,38.0,130.0,221.0,119,129,102,133,132,492,141,479
2025-02-20 15:54:51.624,-428.0,-335.0,161.0,-42.0,157.0,216.0,120,129,102,132,132,528,239,485
2025-02-20 15:54:51.645,-384.0,-56.0,223.0,19.0,136.0,218.0,120,127,101,133,133,563,153,479
2025-02-20 15:54:51.666,-477.0,-30.0,33.0,180.0,138.0,219.0,120,126,101,132,133,534,176,466
2025-02-20 15:54:51.682,-538.0,339.0,97.0,237.0,158.0,201.0,119,125,101,132,132,508,257,459
2025-02-20 15:54:51.703,-1050.0,698.0,-800.0,219.0,123.0,148.0,119,122,100,132,134,504,283,450
2025-02-20 15:54:51.722,-1477.0,1014.0,-1386.0,250.0,-29.0,-45.0,118,121,99,131,133,464,341,444
2025-02-20 15:54:51.740,-1776.0,1590.0,-1634.0,199.0,-252.0,-351.0,119,123,100,132,133,396,420,444
2025-02-20 15:54:51.760,-1305.0,1847.0,-1542.0,109.0,-450.0,-637.0,119,123,100,131,133,375,500,467
2025-02-20 15:54:51.780,708.0,1095.0,-1324.0,47.0,-968.0,-623.0,116,126,101,132,131,452,578,466
2025-02-20 15:54:51.797,3926.0,-626.0,769.0,-89.0,-1000.0,-548.0,117,130,100,130,130,454,650,462
2025-02-20 15:54:51.818,4352.0,-3504.0,2397.0,110.0,-423.0,-264.0,119,130,103,131,129,490,678,461
2025-02-20 15:54:51.834,3477.0,-3695.0,2360.0,302.0,98.0,54.0,121,134,102,132,125,467,750,441
2025-02-20 15:54:51.854,1418.0,-1086.0,1933.0,254.0,296.0,126.0,126,133,97,130,111,360,779,429
2025-02-20 15:54:51.874,236.0,-613.0,1866.0,131.0,359.0,88.0,128,132,81,129,92,379,746,462
2025-02-20 15:54:51.892,64.0,-564.0,1057.0,-87.0,336.0,82.0,128,131,75,126,85,442,748,467
2025-02-20 15:54:51.912,-44.0,-891.0,752.0,-191.0,254.0,121.0,127,131,73,117,84,495,663,474
2025-02-20 15:54:51.932,-89.0,-1044.0,693.0,-186.0,228.0,179.0,127,130,72,111,85,477,514,474
2025-02-20 15:54:51.949,25.0,-902.0,846.0,-112.0,232.0,164.0,126,129,73,110,88,448,477,497
2025-02-20 15:54:51.969,-54.0,-394.0,682.0,-61.0,284.0,145.0,123,128,74,112,90,450,361,488
2025-02-20 15:54:51.986,-420.0,-272.0,505.0,-84.0,284.0,150.0,127,128,76,113,92,443,216,490
2025-02-20 15:54:52.006,-394.0,-314.0,440.0,-98.0,256.0,157.0,126,128,77,114,94,483,102,475
2025-02-20 15:54:52.026,-385.0,-452.0,54.0,-117.0,257.0,180.0,126,129,77,110,95,445,25,473
2025-02-20 15:54:52.043,-215.0,-400.0,342.0,-50.0,237.0,189.0,126,127,77,110,95,456,4,469
2025-02-20 15:54:52.064,-390.0,-261.0,-209.0,13.0,254.0,221.0,126,125,79,110,94,479,88,461
2025-02-20 15:54:52.083,-454.0,153.0,-189.0,51.0,216.0,229.0,125,120,72,109,89,473,261,451
2025-02-20 15:54:52.100,-491.0,544.0,-604.0,104.0,162.0,197.0,125,116,67,103,84,480,427,446
2025-02-20 15:54:52.121,-1519.0,222.0,-1338.0,279.0,40.0,84.0,125,109,60,93,73,441,547,446
2025-02-20 15:54:52.141,-1727.0,666.0,-1735.0,393.0,-180.0,-45.0,125,102,53,80,62,513,577,439
2025-02-20 15:54:52.158,-1594.0,1232.0,-2605.0,427.0,-527.0,-163.0,121,102,51,72,55,479,611,434
2025-02-20 15:54:52.177,353.0,1502.0,-2650.0,400.0,-957.0,-244.0,113,107,51,71,56,490,686,429
2025-02-20 15:54:52.198,2517.0,717.0,-1386.0,408.0,-1109.0,-194.0,105,108,50,71,56,541,724,438
2025-02-20 15:54:52.215,3344.0,-136.0,1333.0,513.0,-934.0,-65.0,106,108,49,70,57,507,716,450
2025-02-20 15:54:52.235,2875.0,617.0,3685.0,347.0,-509.0,7.0,111,112,49,71,57,470,745,452
2025-02-20 15:54:52.252,2409.0,755.0,4154.0,30.0,-119.0,37.0,108,114,49,71,56,400,734,445
2025-02-20 15:54:52.273,1477.0,351.0,2764.0,-132.0,115.0,36.0,101,113,50,71,57,402,688,451
2025-02-20 15:54:52.290,791.0,-4.0,1786.0,-100.0,164.0,6.0,101,111,50,73,58,427,604,452
2025-02-20 15:54:52.310,260.0,-227.0,1592.0,-78.0,187.0,-9.0,102,112,51,75,59,452,527,451
2025-02-20 15:54:52.329,210.0,-241.0,1581.0,-99.0,206.0,20.0,109,112,52,77,61,454,427,457
2025-02-20 15:54:52.349,182.0,-204.0,1289.0,-117.0,213.0,67.0,106,112,51,77,61,419,294,451
2025-02-20 15:54:52.366,157.0,-98.0,1210.0,-93.0,179.0,42.0,104,113,52,77,62,421,157,448
2025-02-20 15:54:52.387,186.0,-246.0,1267.0,-68.0,192.0,33.0,103,114,52,77,61,491,74,452
2025-02-20 15:54:52.407,172.0,-169.0,1352.0,-93.0,270.0,56.0,105,116,53,79,63,494,52,448
2025-02-20 15:54:52.424,83.0,-154.0,1049.0,-168.0,347.0,95.0,105,115,54,81,65,481,75,453
2025-02-20 15:54:52.442,-193.0,-234.0,604.0,-155.0,335.0,145.0,104,115,55,81,65,436,159,453
2025-02-20 15:54:52.461,-212.0,-9.0,521.0,-105.0,283.0,113.0,101,113,55,80,64,388,241,459
2025-02-20 15:54:52.478,-132.0,42.0,612.0,-90.0,293.0,73.0,101,112,55,81,64,374,365,464
2025-02-20 15:54:52.501,-225.0,-9.0,478.0,-112.0,318.0,71.0,104,109,56,81,65,386,531,465
2025-02-20 15:54:52.519,-410.0,12.0,179.0,-123.0,292.0,90.0,106,107,55,80,65,410,662,466
2025-02-20 15:54:52.539,-529.0,-67.0,-79.0,-104.0,243.0,109.0,106,108,56,80,64,387,725,457
2025-02-20 15:54:52.559,-504.0,33.0,-303.0,-51.0,217.0,90.0,106,109,56,80,64,441,778,445
2025-02-20 15:54:52.575,-740.0,366.0,-627.0,12.0,190.0,32.0,106,110,55,79,65,484,781,454
2025-02-20 15:54:52.594,-1765.0,933.0,-1906.0,70.0,-16.0,-105.0,102,111,53,78,63,505,733,458
2025-02-20 15:54:52.616,-2587.0,1023.0,-3267.0,226.0,-448.0,-277.0,94,112,52,74,58,479,722,465
2025-02-20 15:54:52.632,-191.0,1133.0,-2992.0,373.0,-933.0,-303.0,93,114,52,73,56,426,660,471
2025-02-20 15:54:52.653,2379.0,891.0,-1283.0,340.0,-1118.0,-192.0,93,116,51,74,58,437,579,479
2025-02-20 15:54:52.673,3310.0,-352.0,1217.0,328.0,-971.0,-93.0,103,121,51,76,61,442,512,472
2025-02-20 15:54:52.690,3319.0,-316.0,4059.0,289.0,-534.0,46.0,114,125,53,78,64,470,393,463
2025-02-20 15:54:52.708,2653.0,719.0,4166.0,26.0,-133.0,74.0,115,123,54,79,66,425,306,450
2025-02-20 15:54:52.727,1791.0,236.0,3241.0,-186.0,146.0,33.0,115,123,54,81,68,434,212,449
2025-02-20 15:54:52.747,1256.0,-440.0,2079.0,-191.0,248.0,20.0,116,119,55,82,67,415,193,455
2025-02-20 15:54:52.767,571.0,-667.0,1581.0,-158.0,302.0,33.0,121,115,56,83,69,466,199,464
2025-02-20 15:54:52.785,351.0,-739.0,1446.0,-144.0,323.0,78.0,124,111,58,85,70,450,204,469
2025-02-20 15:54:52.805,323.0,-533.0,1363.0,-183.0,350.0,154.0,126,110,59,86,70,443,225,474
2025-02-20 15:54:52.824,263.0,-397.0,1226.0,-253.0,374.0,201.0,126,110,60,86,71,469,260,480
2025-02-20 15:54:52.841,223.0,-164.0,1066.0,-281.0,381.0,216.0,127,110,60,86,71,484,288,471
2025-02-20 15:54:52.862,180.0,-183.0,871.0,-260.0,393.0,224.0,128,109,61,88,72,505,355,470
2025-02-20 15:54:52.882,96.0,-115.0,609.0,-233.0,416.0,228.0,127,109,59,89,73,501,424,471
2025-02-20 15:54:52.898,-85.0,54.0,113.0,-205.0,429.0,216.0,128,110,64,89,75,475,547,476
2025-02-20 15:54:52.919,-320.0,-41.0,-250.0,-143.0,398.0,217.0,128,110,66,87,75,457,646,479
2025-02-20 15:54:52.937,-650.0,264.0,-487.0,-80.0,319.0,197.0,128,111,70,83,76,441,737,480
2025-02-20 15:54:52.956,-849.0,270.0,-689.0,24.0,234.0,154.0,128,110,72,80,74,441,787,480
2025-02-20 15:54:52.976,-874.0,828.0,-966.0,54.0,133.0,81.0,128,109,75,81,73,450,797,479
2025-02-20 15:54:52.994,-846.0,1062.0,-1352.0,124.0,3.0,-15.0,130,109,78,82,71,437,777,467
2025-02-20 15:54:53.013,-1055.0,1417.0,-1490.0,101.0,-139.0,-158.0,131,111,82,80,68,464,715,468
2025-02-20 15:54:53.034,-1019.0,1713.0,-1587.0,64.0,-332.0,-316.0,132,116,87,80,66,508,622,472
2025-02-20 15:54:53.051,-938.0,1496.0,-1544.0,89.0,-552.0,-508.0,133,120,92,81,67,487,538,490
2025-02-20 15:54:53.071,646.0,1468.0,-897.0,80.0,-821.0,-661.0,133,125,96,84,70,491,444,500
2025-02-20 15:54:53.091,2381.0,-37.0,557.0,-143.0,-946.0,-674.0,133,129,100,93,74,475,317,498
2025-02-20 15:54:53.108,3110.0,-3036.0,1721.0,-102.0,-823.0,-422.0,132,132,102,91,76,482,217,495
2025-02-20 15:54:53.128,3875.0,-3634.0,1767.0,-48.0,-391.0,-57.0,134,133,102,91,76,464,161,483
2025-02-20 15:54:53.146,3298.0,-2882.0,2220.0,-31.0,5.0,136.0,134,133,102,91,76,436,116,477
2025-02-20 15:54:53.163,1272.0,-1779.0,1661.0,43.0,238.0,142.0,134,134,102,90,73,439,84,468
2025-02-20 15:54:53.185,440.0,-1112.0,1199.0,25.0,245.0,93.0,135,133,103,89,69,449,175,473
2025-02-20 15:54:53.202,84.0,-1199.0,766.0,-31.0,213.0,117.0,133,133,103,89,67,445,331,476
2025-02-20 15:54:53.223,-88.0,-1106.0,677.0,-90.0,172.0,154.0,134,133,102,89,66,501,573,477
2025-02-20 15:54:53.240,-34.0,-926.0,658.0,-94.0,166.0,169.0,134,132,103,89,67,523,667,479
2025-02-20 15:54:53.260,-4.0,-872.0,585.0,-65.0,181.0,183.0,133,133,103,89,68,554,691,483
2025-02-20 15:54:53.280,-1.0,-765.0,493.0,-21.0,197.0,200.0,133,133,103,89,69,505,712,479
2025-02-20 15:54:53.300,-11.0,-557.0,525.0,3.0,239.0,216.0,133,133,103,88,70,445,737,476
2025-02-20 15:54:53.317,-87.0,-355.0,320.0,39.0,274.0,234.0,133,133,104,89,70,443,766,473
2025-02-20 15:54:53.337,-187.0,-76.0,123.0,42.0,283.0,260.0,133,133,104,88,70,441,735,471
2025-02-20 15:54:53.354,-300.0,99.0,141.0,16.0,294.0,266.0,133,133,105,88,72,478,702,471
2025-02-20 15:54:53.375,-374.0,108.0,-6.0,26.0,285.0,251.0,133,133,103,89,71,530,640,467
2025-02-20 15:54:53.393,-504.0,309.0,-386.0,39.0,253.0,235.0,132,132,105,85,72,521,578,467
2025-02-20 15:54:53.412,-1089.0,987.0,-1259.0,72.0,124.0,142.0,134,130,104,82,70,515,513,467
2025-02-20 15:54:53.432,-1542.0,1402.0,-1439.0,103.0,-104.0,-95.0,134,130,105,81,69,469,412,467
2025-02-20 15:54:53.452,-1418.0,1940.0,-1252.0,65.0,-285.0,-343.0,132,130,105,83,68,458,307,470
2025-02-20 15:54:53.469,-739.0,1823.0,-1020.0,7.0,-470.0,-592.0,131,130,106,84,69,435,238,485
2025-02-20 15:54:53.489,330.0,1284.0,-196.0,-115.0,-671.0,-741.0,128,131,106,85,71,459,183,480
2025-02-20 15:54:53.509,1842.0,-674.0,147.0,-267.0,-806.0,-681.0,125,132,107,88,73,441,145,477
2025-02-20 15:54:53.526,3581.0,-3434.0,379.0,-78.0,-612.0,-376.0,126,133,105,90,75,446,134,475
2025-02-20 15:54:53.546,3639.0,-3839.0,1452.0,45.0,-164.0,-45.0,126,134,105,90,76,484,131,461
2025-02-20 15:54:53.563,2197.0,-2803.0,1514.0,149.0,206.0,124.0,127,134,105,88,75,447,143,462
2025-02-20 15:54:53.583,894.0,-1567.0,1206.0,137.0,259.0,131.0,129,134,104,87,72,399,144,460
2025-02-20 15:54:53.603,428.0,-1472.0,1078.0,21.0,228.0,157.0,130,133,103,88,69,435,266,468
2025-02-20 15:54:53.620,305.0,-1401.0,762.0,-66.0,202.0,201.0,132,134,100,90,70,413,483,478
2025-02-20 15:54:53.640,266.0,-1454.0,734.0,-21.0,227.0,220.0,135,134,91,91,70,441,653,488
2025-02-20 15:54:53.661,254.0,-1205.0,665.0,44.0,285.0,227.0,139,133,77,91,71,448,718,483
2025-02-20 15:54:53.678,-91.0,-866.0,641.0,56.0,322.0,249.0,140,131,62,91,72,547,745,482
2025-02-20 15:54:53.698,-204.0,-528.0,428.0,24.0,303.0,275.0,142,127,56,88,70,576,681,483
2025-02-20 15:54:53.718,-137.0,-424.0,266.0,22.0,292.0,290.0,142,122,54,85,69,531,671,469
2025-02-20 15:54:53.735,-174.0,-303.0,-9.0,55.0,293.0,304.0,140,117,53,83,68,524,690,466
2025-02-20 15:54:53.754,-434.0,15.0,-272.0,101.0,267.0,289.0,137,114,53,83,69,508,590,466
2025-02-20 15:54:53.774,-483.0,504.0,-583.0,89.0,219.0,238.0,132,106,54,78,68,502,587,466
2025-02-20 15:54:53.792,-697.0,929.0,-1252.0,132.0,93.0,125.0,125,96,53,78,68,482,546,466
2025-02-20 15:54:53.812,-1135.0,1191.0,-1551.0,211.0,-58.0,-20.0,112,92,50,74,64,460,411,461
2025-02-20 15:54:53.832,-1398.0,1070.0,-2195.0,292.0,-335.0,-174.0,99,92,50,71,60,456,364,463
2025-02-20 15:54:53.847,-807.0,890.0,-2866.0,376.0,-689.0,-224.0,88,94,50,67,56,400,332,460
2025-02-20 15:54:53.869,1396.0,837.0,-2346.0,479.0,-1033.0,-185.0,85,98,50,65,58,355,301,459
2025-02-20 15:54:53.884,3421.0,902.0,-542.0,474.0,-1152.0,-122.0,90,103,50,68,60,377,235,472
2025-02-20 15:54:53.907,3734.0,-122.0,3098.0,436.0,-842.0,-9.0,96,110,50,69,63,441,212,462
2025-02-20 15:54:53.927,3191.0,678.0,4915.0,226.0,-237.0,69.0,101,115,51,71,66,471,184,463
2025-02-20 15:54:53.943,2007.0,857.0,4026.0,-131.0,118.0,19.0,102,116,51,72,66,464,236,455
2025-02-20 15:54:53.964,1139.0,182.0,2278.0,-221.0,284.0,-4.0,100,113,51,74,67,477,329,453
2025-02-20 15:54:53.984,510.0,-355.0,1422.0,-135.0,274.0,-13.0,100,111,51,75,66,477,448,455
2025-02-20 15:54:53.999,169.0,-383.0,1311.0,-93.0,231.0,-7.0,102,111,52,75,68,539,547,459
2025-02-20 15:54:54.020,63.0,-470.0,1337.0,-96.0,197.0,40.0,104,113,52,77,69,545,588,466
2025-02-20 15:54:54.037,61.0,-245.0,1298.0,-86.0,177.0,67.0,103,114,52,77,67,500,670,469
2025-02-20 15:54:54.058,139.0,-192.0,1291.0,-81.0,173.0,49.0,103,115,52,78,70,503,711,471
2025-02-20 15:54:54.078,135.0,-246.0,1316.0,-90.0,231.0,51.0,105,115,53,75,69,472,701,457
2025-02-20 15:54:54.096,152.0,-159.0,1073.0,-115.0,310.0,70.0,107,114,53,79,71,469,717,456
2025-02-20 15:54:54.115,-210.0,-222.0,649.0,-115.0,311.0,117.0,108,111,54,80,71,459,721,455
2025-02-20 15:54:54.136,-313.0,-114.0,359.0,-97.0,263.0,133.0,106,111,54,81,72,466,691,452
2025-02-20 15:54:54.152,-176.0,-66.0,414.0,-91.0,252.0,129.0,105,113,54,80,70,431,671,446
2025-02-20 15:54:54.173,-189.0,54.0,344.0,-97.0,270.0,127.0,107,113,54,81,70,378,605,463
2025-02-20 15:54:54.192,-305.0,162.0,208.0,-108.0,262.0,128.0,110,113,53,79,71,394,511,473
2025-02-20 15:54:54.210,-401.0,220.0,54.0,-89.0,243.0,114.0,111,115,55,83,70,412,378,477
2025-02-20 15:54:54.230,-574.0,495.0,-383.0,-42.0,225.0,48.0,108,116,55,78,69,442,275,466
2025-02-20 15:54:54.250,-1222.0,1038.0,-1248.0,14.0,85.0,-94.0,106,119,54,77,68,484,181,453
2025-02-20 15:54:54.267,-1841.0,1000.0,-2470.0,105.0,-186.0,-266.0,102,120,52,74,65,514,129,459
2025-02-20 15:54:54.284,-1215.0,479.0,-2497.0,257.0,-594.0,-301.0,99,124,53,73,65,500,121,474
2025-02-20 15:54:54.304,300.0,769.0,-1776.0,315.0,-830.0,-247.0,98,126,53,73,62,455,159,466
2025-02-20 15:54:54.324,2073.0,253.0,-317.0,328.0,-971.0,-174.0,102,124,53,73,63,463,206,466
2025-02-20 15:54:54.344,3365.0,-522.0,2252.0,334.0,-834.0,-69.0,110,130,53,73,65,483,252,476
2025-02-20 15:54:54.361,3246.0,-227.0,3916.0,261.0,-453.0,65.0,116,130,53,75,69,494,342,478
2025-02-20 15:54:54.382,2433.0,353.0,4126.0,-25.0,-51.0,82.0,119,132,54,75,72,454,435,468
2025-02-20 15:54:54.402,1576.0,125.0,2836.0,-191.0,153.0,49.0,124,131,55,78,72,451,568,467
2025-02-20 15:54:54.419,952.0,-354.0,2041.0,-238.0,270.0,45.0,127,131,56,79,74,412,702,467
2025-02-20 15:54:54.436,492.0,-792.0,1411.0,-177.0,301.0,58.0,130,130,58,79,75,450,856,470
2025-02-20 15:54:54.459,206.0,-671.0,1166.0,-124.0,294.0,90.0,131,129,60,81,78,480,868,470
2025-02-20 15:54:54.476,175.0,-546.0,1275.0,-150.0,309.0,140.0,133,129,64,83,81,493,831,467
2025-02-20 15:54:54.497,226.0,-234.0,1119.0,-217.0,327.0,183.0,135,127,66,83,83,484,776,462
2025-02-20 15:54:54.513,44.0,-20.0,1056.0,-270.0,338.0,193.0,137,120,66,86,83,467,697,458
2025-02-20 15:54:54.533,-14.0,-481.0,955.0,-275.0,337.0,201.0,137,102,62,86,84,483,608,458
2025-02-20 15:54:54.553,172.0,-271.0,909.0,-228.0,387.0,236.0,137,90,62,88,84,479,527,459
2025-02-20 15:54:54.568,-19.0,-331.0,536.0,-235.0,418.0,263.0,137,78,61,86,83,454,430,460
2025-02-20 15:54:54.591,-434.0,-110.0,218.0,-200.0,376.0,246.0,137,69,61,83,80,444,309,463
2025-02-20 15:54:54.610,-400.0,208.0,36.0,-137.0,335.0,204.0,136,61,60,81,76,451,213,467
2025-02-20 15:54:54.628,-620.0,595.0,-362.0,-76.0,297.0,135.0,136,56,57,74,72,448,148,464
2025-02-20 15:54:54.648,-755.0,1455.0,-810.0,35.0,165.0,6.0,133,55,55,72,68,454,143,468
2025-02-20 15:54:54.667,-692.0,1700.0,-1272.0,58.0,80.0,-166.0,124,54,52,71,64,471,185,469
2025-02-20 15:54:54.685,-854.0,1956.0,-1633.0,89.0,-67.0,-326.0,114,51,51,71,61,508,236,463
2025-02-20 15:54:54.705,-1090.0,1775.0,-1959.0,148.0,-262.0,-499.0,105,51,50,69,59,509,284,464
2025-02-20 15:54:54.726,-567.0,1566.0,-2030.0,177.0,-582.0,-648.0,101,50,50,70,59,503,349,469
2025-02-20 15:54:54.742,1061.0,1414.0,-1886.0,34.0,-953.0,-685.0,101,50,49,71,62,476,417,471
2025-02-20 15:54:54.763,4608.0,-1250.0,-642.0,-129.0,-1142.0,-476.0,103,51,50,75,64,440,460,483
2025-02-20 15:54:54.780,5128.0,-5521.0,2660.0,92.0,-549.0,-112.0,110,52,50,76,66,447,544,468
2025-02-20 15:54:54.799,3692.0,-2556.0,2942.0,249.0,106.0,13.0,113,53,51,74,68,439,624,454
2025-02-20 15:54:54.820,933.0,-1370.0,2017.0,145.0,279.0,-40.0,116,55,52,72,63,441,621,453
2025-02-20 15:54:54.837,379.0,-1575.0,1169.0,-52.0,257.0,60.0,117,56,53,72,59,489,655,449
2025-02-20 15:54:54.854,104.0,-1653.0,812.0,-119.0,169.0,113.0,114,56,52,73,61,485,778,453
2025-02-20 15:54:54.876,74.0,-1658.0,631.0,-142.0,130.0,159.0,113,57,53,73,62,509,685,462
2025-02-20 15:54:54.894,345.0,-1531.0,893.0,-127.0,157.0,196.0,113,56,53,75,61,490,554,471
2025-02-20 15:54:54.914,295.0,-1329.0,716.0,-71.0,209.0,213.0,114,57,54,73,62,503,397,466
2025-02-20 15:54:54.932,92.0,-1054.0,521.0,-22.0,203.0,215.0,114,58,55,74,63,454,360,464
2025-02-20 15:54:54.952,44.0,-607.0,448.0,-25.0,197.0,226.0,115,57,53,76,63,456,283,464
2025-02-20 15:54:54.971,-24.0,-350.0,386.0,-51.0,207.0,232.0,115,56,55,76,64,495,326,462
2025-02-20 15:54:54.988,-103.0,-338.0,307.0,-60.0,229.0,234.0,116,55,55,76,65,535,242,468
2025-02-20 15:54:55.009,-150.0,-261.0,99.0,-31.0,214.0,223.0,118,56,56,77,66,509,145,481
2025-02-20 15:54:55.028,-416.0,-171.0,21.0,-3.0,177.0,223.0,118,56,56,77,66,522,137,483
2025-02-20 15:54:55.046,-345.0,-58.0,36.0,4.0,153.0,204.0,118,57,56,77,67,464,195,483
2025-02-20 15:54:55.065,-553.0,41.0,-70.0,1.0,129.0,184.0,118,57,56,76,66,462,186,476
2025-02-20 15:54:55.086,-557.0,192.0,-211.0,13.0,83.0,156.0,118,57,56,76,67,445,301,469
2025-02-20 15:54:55.102,-649.0,467.0,-347.0,32.0,62.0,144.0,119,58,56,77,67,426,466,453
2025-02-20 15:54:55.122,-775.0,957.0,-460.0,130.0,42.0,38.0,119,58,57,77,66,443,545,459
2025-02-20 15:54:55.143,-1198.0,1833.0,-914.0,233.0,2.0,-152.0,116,59,57,76,63,450,605,461
2025-02-20 15:54:55.161,-1685.0,1883.0,-1777.0,259.0,-160.0,-410.0,110,57,57,76,60,499,634,466
2025-02-20 15:54:55.181,-1403.0,1080.0,-1864.0,329.0,-501.0,-504.0,111,57,56,77,59,463,689,468
2025-02-20 15:54:55.197,484.0,-22.0,-1003.0,431.0,-806.0,-454.0,113,56,57,79,62,427,688,465
2025-02-20 15:54:55.218,3490.0,-997.0,1048.0,506.0,-854.0,-276.0,119,56,57,81,66,419,665,459
2025-02-20 15:54:55.237,3414.0,-1488.0,4673.0,445.0,-283.0,-37.0,123,60,59,83,69,398,678,467
2025-02-20 15:54:55.254,1390.0,661.0,4086.0,105.0,107.0,-130.0,124,60,59,82,68,429,671,460
2025-02-20 15:54:55.275,788.0,-1049.0,2725.0,-62.0,264.0,-86.0,123,59,57,83,69,456,618,451
2025-02-20 15:54:55.295,171.0,-1046.0,1373.0,16.0,281.0,-61.0,123,58,55,80,68,508,574,454
2025-02-20 15:54:55.312,-25.0,-902.0,869.0,113.0,259.0,-51.0,124,58,54,81,67,454,546,456
2025-02-20 15:54:55.332,-521.0,-604.0,410.0,160.0,176.0,-41.0,124,57,55,79,66,429,475,464
2025-02-20 15:54:55.351,-652.0,-382.0,516.0,155.0,74.0,-38.0,126,58,55,80,66,489,355,473
2025-02-20 15:54:55.369,-523.0,-127.0,728.0,144.0,28.0,-38.0,126,58,54,80,66,545,330,462
2025-02-20 15:54:55.387,-403.0,-47.0,846.0,158.0,-4.0,-51.0,128,58,55,80,66,511,287,457
2025-02-20 15:54:55.406,-333.0,-96.0,996.0,141.0,-7.0,-61.0,128,58,54,81,66,494,266,450
2025-02-20 15:54:55.426,-242.0,-272.0,912.0,121.0,17.0,-58.0,128,58,53,80,66,440,233,438
2025-02-20 15:54:55.446,-210.0,-361.0,809.0,118.0,17.0,-50.0,128,58,53,80,65,431,291,443
2025-02-20 15:54:55.464,-215.0,-153.0,756.0,78.0,-7.0,-31.0,129,57,53,79,64,466,349,442
2025-02-20 15:54:55.484,-143.0,-540.0,899.0,54.0,-23.0,1.0,129,58,54,80,65,507,409,453
2025-02-20 15:54:55.503,38.0,-755.0,1025.0,70.0,-9.0,16.0,129,58,55,81,65,504,467,454
2025-02-20 15:54:55.520,262.0,-1044.0,1081.0,87.0,-2.0,66.0,129,57,55,82,67,457,529,449
2025-02-20 15:54:55.531,460.0,-1480.0,1119.0,75.0,-12.0,185.0,128,58,54,82,67,448,589,453
2025-02-20 15:54:55.561,851.0,-1744.0,1313.0,12.0,-3.0,414.0,131,57,53,80,68,452,639,451
2025-02-20 15:54:55.575,1529.0,-1936.0,1467.0,-79.0,98.0,668.0,136,57,53,78,67,468,681,454
2025-02-20 15:54:55.598,1796.0,58.0,1586.0,-292.0,84.0,810.0,136,56,51,76,66,483,697,473
2025-02-20 15:54:55.616,1043.0,821.0,1651.0,-496.0,35.0,704.0,138,57,54,75,67,473,701,470
2025-02-20 15:54:55.636,383.0,1740.0,1962.0,-328.0,81.0,510.0,140,59,55,73,68,465,698,465
2025-02-20 15:54:55.655,-33.0,2495.0,1783.0,-145.0,117.0,227.0,146,59,54,73,66,474,610,460
2025-02-20 15:54:55.672,-235.0,2453.0,1664.0,66.0,173.0,89.0,144,60,55,73,66,473,514,458
2025-02-20 15:54:55.690,-409.0,2482.0,1266.0,127.0,169.0,-60.0,145,59,54,72,64,496,413,467
2025-02-20 15:54:55.712,-292.0,1784.0,936.0,95.0,168.0,-147.0,145,58,53,71,62,483,290,464
2025-02-20 15:54:55.729,-256.0,914.0,606.0,105.0,146.0,-216.0,144,58,54,71,61,469,246,461
2025-02-20 15:54:55.749,-269.0,103.0,407.0,190.0,103.0,-267.0,143,57,53,71,60,471,186,456
2025-02-20 15:54:55.769,-480.0,-41.0,244.0,285.0,26.0,-252.0,142,56,53,70,61,457,132,448
2025-02-20 15:54:55.787,-615.0,459.0,186.0,258.0,-86.0,-279.0,142,56,52,71,62,431,134,443
2025-02-20 15:54:55.806,-420.0,387.0,299.0,228.0,-187.0,-308.0,142,56,53,72,63,355,209,433
2025-02-20 15:54:55.827,-109.0,103.0,679.0,251.0,-231.0,-329.0,141,53,53,73,64,380,285,434
2025-02-20 15:54:55.842,-41.0,92.0,942.0,232.0,-240.0,-296.0,141,55,53,74,65,438,367,436
2025-02-20 15:54:55.864,112.0,95.0,1138.0,176.0,-230.0,-274.0,140,56,53,75,66,499,444,436
2025-02-20 15:54:55.882,10.0,-144.0,1214.0,91.0,-212.0,-195.0,141,57,53,74,67,480,528,447
2025-02-20 15:54:55.902,106.0,-338.0,1307.0,4.0,-168.0,-130.0,140,57,53,75,68,484,625,459
2025-02-20 15:54:55.921,143.0,-510.0,1347.0,1.0,-96.0,-89.0,141,57,53,76,67,485,658,468
2025-02-20 15:54:55.939,154.0,-650.0,1257.0,39.0,-23.0,-68.0,141,57,53,76,68,452,700,464
2025-02-20 15:54:55.956,117.0,-676.0,1009.0,69.0,-4.0,-31.0,141,57,52,76,68,451,729,466
2025-02-20 15:54:55.973,186.0,-772.0,905.0,49.0,-31.0,49.0,141,57,53,76,67,442,725,463
2025-02-20 15:54:55.996,539.0,-1214.0,1193.0,19.0,-49.0,186.0,142,59,53,76,68,431,672,456
2025-02-20 15:54:56.016,1320.0,-1849.0,1751.0,-31.0,10.0,455.0,141,57,53,75,67,439,633,459
2025-02-20 15:54:56.036,1950.0,-1895.0,1633.0,-124.0,145.0,730.0,141,57,53,75,66,440,575,458
2025-02-20 15:54:56.053,1383.0,968.0,1727.0,-460.0,87.0,810.0,141,57,52,72,64,409,497,455
2025-02-20 15:54:56.073,1290.0,579.0,2130.0,-642.0,58.0,734.0,142,56,51,70,64,421,396,463
2025-02-20 15:54:56.091,634.0,1747.0,2274.0,-507.0,158.0,505.0,142,57,52,69,63,441,303,471
2025-02-20 15:54:56.110,12.0,1764.0,2211.0,-202.0,253.0,201.0,143,58,53,70,64,438,224,475
2025-02-20 15:54:56.131,-445.0,1727.0,1876.0,57.0,298.0,56.0,142,59,53,71,65,456,176,470
2025-02-20 15:54:56.148,-207.0,1525.0,1687.0,34.0,310.0,-33.0,142,58,53,72,64,442,185,469
2025-02-20 15:54:56.168,65.0,470.0,1480.0,-73.0,360.0,-37.0,141,59,54,72,64,402,197,479
2025-02-20 15:54:56.188,51.0,-588.0,883.0,-40.0,403.0,-34.0,139,59,54,71,65,434,266,480
2025-02-20 15:54:56.205,-332.0,-1065.0,183.0,66.0,355.0,-21.0,138,57,55,72,67,446,336,478
2025-02-20 15:54:56.223,-549.0,-1121.0,446.0,42.0,285.0,34.0,137,59,56,72,70,407,343,477
2025-02-20 15:54:56.245,-501.0,-560.0,614.0,-11.0,282.0,55.0,139,60,57,75,77,398,371,466
2025-02-20 15:54:56.262,-463.0,-409.0,262.0,-19.0,312.0,37.0,138,61,61,78,82,429,449,457
2025-02-20 15:54:56.282,-671.0,-323.0,-6.0,20.0,282.0,42.0,133,63,63,81,86,463,570,463
2025-02-20 15:54:56.300,-785.0,-158.0,-83.0,115.0,182.0,48.0,128,67,66,90,92,453,716,468
2025-02-20 15:54:56.319,-1239.0,68.0,-348.0,107.0,170.0,37.0,125,70,67,96,97,464,773,473
2025-02-20 15:54:56.339,-820.0,101.0,-240.0,128.0,164.0,27.0,124,74,72,104,97,464,768,468
2025-02-20 15:54:56.357,-1016.0,-88.0,270.0,164.0,194.0,18.0,124,77,76,105,99,484,795,468
2025-02-20 15:54:56.373,-542.0,638.0,-780.0,62.0,99.0,-37.0,122,81,80,109,99,498,776,469
2025-02-20 15:54:56.397,-894.0,551.0,-557.0,116.0,62.0,-49.0,121,84,84,112,101,524,750,470
2025-02-20 15:54:56.412,-640.0,798.0,-911.0,132.0,5.0,-121.0,121,85,85,113,105,519,667,469
2025-02-20 15:54:56.433,-638.0,995.0,-1050.0,52.0,-128.0,-242.0,121,90,89,115,111,524,548,464
2025-02-20 15:54:56.454,-1000.0,1053.0,-1219.0,-26.0,-226.0,-466.0,122,92,90,116,117,486,407,466
2025-02-20 15:54:56.471,-1000.0,1299.0,-2000.0,-70.0,-389.0,-661.0,122,99,93,118,122,454,293,466
2025-02-20 15:54:56.491,-308.0,803.0,-940.0,-86.0,-502.0,-787.0,122,106,95,122,125,421,215,467
2025-02-20 15:54:56.512,2022.0,468.0,193.0,-251.0,-918.0,-840.0,122,114,96,126,127,403,158,465
2025-02-20 15:54:56.525,3537.0,-1632.0,-148.0,-274.0,-839.0,-630.0,124,117,98,128,128,447,117,462
2025-02-20 15:54:56.549,3522.0,-3284.0,-231.0,-194.0,-613.0,-273.0,126,119,100,130,128,431,51,467
2025-02-20 15:54:56.566,3263.0,-3730.0,525.0,-4.0,-338.0,11.0,129,121,99,131,129,427,106,473
2025-02-20 15:54:56.585,2327.0,-3009.0,949.0,88.0,93.0,113.0,130,121,99,131,129,390,183,466
2025-02-20 15:54:56.605,854.0,-2128.0,483.0,122.0,239.0,191.0,131,122,99,130,129,384,216,462
2025-02-20 15:54:56.622,340.0,-1354.0,665.0,114.0,234.0,246.0,131,121,99,134,129,459,321,464
2025-02-20 15:54:56.642,2.0,-1066.0,231.0,106.0,146.0,273.0,131,120,99,130,129,520,571,468
2025-02-20 15:54:56.663,-344.0,-939.0,195.0,62.0,106.0,259.0,130,119,101,132,129,529,748,472
2025-02-20 15:54:56.680,-319.0,-747.0,147.0,76.0,101.0,229.0,129,118,99,132,130,505,766,470
2025-02-20 15:54:56.700,-309.0,-716.0,568.0,-25.0,79.0,190.0,129,116,99,132,131,499,688,465
2025-02-20 15:54:56.720,-272.0,-648.0,488.0,-80.0,90.0,181.0,130,118,99,132,131,519,710,468
2025-02-20 15:54:56.737,-220.0,-682.0,319.0,-83.0,120.0,199.0,131,119,99,132,131,511,642,472
2025-02-20 15:54:56.757,-260.0,-593.0,567.0,-71.0,127.0,228.0,131,118,99,132,131,498,631,469
2025-02-20 15:54:56.777,-102.0,-429.0,749.0,-65.0,170.0,238.0,131,118,101,132,132,464,616,463
2025-02-20 15:54:56.794,-282.0,-453.0,330.0,-40.0,150.0,222.0,131,118,100,132,132,467,625,464
2025-02-20 15:54:56.815,-303.0,-351.0,414.0,46.0,179.0,217.0,130,117,100,131,132,473,453,466
2025-02-20 15:54:56.830,-767.0,124.0,76.0,224.0,145.0,220.0,132,116,99,131,132,465,327,466
2025-02-20 15:54:56.852,-628.0,1087.0,-240.0,193.0,100.0,165.0,131,116,99,131,131,451,246,460
2025-02-20 15:54:56.872,-1151.0,1006.0,-1002.0,285.0,60.0,-41.0,131,116,99,132,132,436,195,452
2025-02-20 15:54:56.889,-1812.0,1618.0,-1447.0,263.0,-63.0,-352.0,130,117,100,130,132,459,164,456
2025-02-20 15:54:56.909,-1356.0,2441.0,-2301.0,123.0,-316.0,-644.0,132,121,101,131,132,406,126,466
2025-02-20 15:54:56.929,-88.0,498.0,-1887.0,-129.0,-866.0,-644.0,124,121,101,132,133,407,133,469
2025-02-20 15:54:56.947,2833.0,-1320.0,1095.0,-279.0,-736.0,-633.0,125,124,101,133,133,498,215,471
2025-02-20 15:54:56.967,3724.0,-4049.0,610.0,59.0,-476.0,-379.0,127,127,102,132,133,499,298,467
2025-02-20 15:54:56.987,2786.0,-3709.0,675.0,237.0,-160.0,-11.0,131,129,101,133,132,520,350,452
2025-02-20 15:54:57.004,1263.0,-1857.0,1471.0,267.0,25.0,72.0,138,128,102,134,132,433,409,459
2025-02-20 15:54:57.023,194.0,-1064.0,1595.0,162.0,75.0,18.0,141,128,101,134,131,447,570,469
2025-02-20 15:54:57.040,-11.0,-818.0,1194.0,49.0,104.0,27.0,142,127,100,134,131,498,723,474
2025-02-20 15:54:57.060,-41.0,-902.0,894.0,1.0,86.0,45.0,143,125,99,133,131,450,815,474
2025-02-20 15:54:57.078,-51.0,-783.0,596.0,37.0,53.0,51.0,143,123,97,133,130,422,811,473
2025-02-20 15:54:57.098,103.0,-783.0,621.0,56.0,80.0,29.0,142,122,96,133,130,432,762,464
2025-02-20 15:54:57.118,46.0,-744.0,925.0,95.0,109.0,12.0,143,121,94,132,129,459,709,475
2025-02-20 15:54:57.138,68.0,-507.0,828.0,60.0,142.0,5.0,143,119,94,132,129,510,563,468
2025-02-20 15:54:57.155,-129.0,-485.0,698.0,107.0,124.0,-5.0,144,120,93,132,127,497,474,462
2025-02-20 15:54:57.175,-129.0,-302.0,608.0,106.0,126.0,-18.0,144,118,94,130,126,491,449,456
2025-02-20 15:54:57.193,-151.0,-235.0,729.0,121.0,121.0,-40.0,143,115,93,128,126,476,478,473
2025-02-20 15:54:57.212,-197.0,-456.0,758.0,185.0,169.0,-78.0,143,112,91,129,122,468,386,478
2025-02-20 15:54:57.232,-210.0,-492.0,668.0,295.0,213.0,-108.0,144,107,84,128,115,490,281,477
2025-02-20 15:54:57.249,-380.0,-336.0,652.0,383.0,227.0,-130.0,142,100,80,125,103,504,303,470
2025-02-20 15:54:57.269,-545.0,-130.0,348.0,386.0,192.0,-153.0,142,93,76,125,92,448,311,468
2025-02-20 15:54:57.290,-533.0,-132.0,430.0,365.0,137.0,-170.0,143,82,70,121,81,413,277,473
2025-02-20 15:54:57.307,-396.0,-478.0,458.0,358.0,64.0,-147.0,143,70,62,110,70,443,277,469
2025-02-20 15:54:57.327,412.0,-1276.0,705.0,359.0,-37.0,-31.0,144,62,57,97,63,480,296,463
2025-02-20 15:54:57.347,1333.0,-1671.0,1777.0,200.0,-54.0,190.0,145,58,53,89,58,490,346,454
2025-02-20 15:54:57.365,1747.0,-1750.0,2094.0,-17.0,17.0,418.0,147,58,52,83,57,470,411,442
2025-02-20 15:54:57.384,1771.0,-1687.0,1960.0,-102.0,135.0,663.0,148,54,49,77,56,464,498,447
2025-02-20 15:54:57.404,1347.0,-5.0,2068.0,-221.0,145.0,715.0,148,55,48,72,53,479,578,455
2025-02-20 15:54:57.422,1055.0,992.0,1518.0,-363.0,138.0,640.0,148,56,50,70,53,480,610,457
2025-02-20 15:54:57.440,206.0,2232.0,1609.0,-288.0,183.0,432.0,148,57,51,69,53,445,637,460
2025-02-20 15:54:57.458,-516.0,2590.0,1159.0,-113.0,176.0,179.0,148,59,51,70,54,471,666,460
2025-02-20 15:54:57.477,-568.0,2136.0,1041.0,-12.0,144.0,60.0,148,58,51,71,54,497,714,471
2025-02-20 15:54:57.499,-620.0,2052.0,962.0,23.0,114.0,-63.0,148,59,52,71,55,543,699,473
2025-02-20 15:54:57.515,-490.0,1470.0,845.0,69.0,113.0,-151.0,148,59,52,72,55,558,651,469
2025-02-20 15:54:57.536,-279.0,623.0,716.0,109.0,111.0,-190.0,148,59,52,72,55,537,594,470
2025-02-20 15:54:57.556,-438.0,444.0,500.0,158.0,89.0,-242.0,147,59,52,71,56,486,536,472
2025-02-20 15:54:57.572,-439.0,223.0,498.0,171.0,39.0,-277.0,148,58,52,72,56,426,437,470
2025-02-20 15:54:57.593,-436.0,183.0,512.0,175.0,-39.0,-291.0,147,59,52,73,57,449,349,466
2025-02-20 15:54:57.613,-342.0,115.0,687.0,189.0,-95.0,-295.0,147,60,52,73,58,453,270,468
2025-02-20 15:54:57.629,-304.0,96.0,782.0,194.0,-134.0,-284.0,147,61,52,76,61,428,231,468
2025-02-20 15:54:57.646,-186.0,-57.0,924.0,160.0,-164.0,-262.0,146,60,52,77,61,430,192,465
2025-02-20 15:54:57.670,-46.0,-133.0,1036.0,123.0,-158.0,-236.0,145,61,52,79,63,433,197,469
2025-02-20 15:54:57.687,-84.0,-686.0,1058.0,117.0,-132.0,-172.0,144,61,54,80,64,465,258,468
2025-02-20 15:54:57.708,-16.0,-673.0,1124.0,98.0,-105.0,-108.0,143,61,54,81,64,509,320,468
2025-02-20 15:54:57.724,214.0,-1013.0,1258.0,71.0,-61.0,-39.0,144,62,53,82,65,486,387,469
2025-02-20 15:54:57.744,606.0,-1750.0,1184.0,70.0,-17.0,101.0,146,62,53,82,65,471,434,468
2025-02-20 15:54:57.764,901.0,-1827.0,1277.0,39.0,3.0,314.0,143,61,53,82,65,419,506,470
2025-02-20 15:54:57.781,1392.0,-1886.0,1264.0,-46.0,67.0,586.0,145,61,52,81,65,365,579,464
2025-02-20 15:54:57.801,951.0,228.0,1442.0,-288.0,27.0,691.0,144,60,53,80,61,354,643,461
2025-02-20 15:54:57.822,546.0,924.0,1438.0,-622.0,-70.0,646.0,144,61,54,79,60,390,690,467
2025-02-20 15:54:57.840,534.0,1274.0,1751.0,-589.0,-124.0,524.0,145,62,54,79,62,421,684,471
2025-02-20 15:54:57.859,133.0,1880.0,2404.0,-387.0,-107.0,271.0,145,65,57,82,65,469,645,471
2025-02-20 15:54:57.876,449.0,833.0,3063.0,-224.0,24.0,158.0,144,67,59,86,69,500,600,487
2025-02-20 15:54:57.896,256.0,700.0,2644.0,-131.0,232.0,98.0,145,67,59,89,71,515,567,487
2025-02-20 15:54:57.916,204.0,196.0,1739.0,-199.0,314.0,73.0,145,66,59,89,69,496,515,488
2025-02-20 15:54:57.934,93.0,-671.0,891.0,-234.0,316.0,95.0,146,66,59,87,66,466,482,485
2025-02-20 15:54:57.954,-1.0,-1264.0,490.0,-137.0,307.0,121.0,144,67,60,86,66,429,466,486
2025-02-20 15:54:57.973,-182.0,-866.0,271.0,-23.0,308.0,117.0,145,66,62,85,66,421,413,478
2025-02-20 15:54:57.990,-552.0,-418.0,270.0,-53.0,272.0,106.0,145,67,63,83,66,445,318,476
2025-02-20 15:54:58.011,-484.0,-364.0,299.0,-101.0,270.0,104.0,145,69,66,85,67,461,225,477
2025-02-20 15:54:58.029,-471.0,-356.0,271.0,-50.0,320.0,95.0,147,73,70,84,68,459,234,476
2025-02-20 15:54:58.048,-526.0,20.0,87.0,76.0,357.0,62.0,144,79,75,83,68,471,269,476
2025-02-20 15:54:58.068,-514.0,476.0,-170.0,161.0,351.0,45.0,143,86,78,84,68,488,311,475
2025-02-20 15:54:58.085,-764.0,621.0,-387.0,207.0,280.0,30.0,143,93,82,83,67,490,344,471
2025-02-20 15:54:58.105,-728.0,675.0,-462.0,221.0,235.0,-10.0,143,96,85,85,66,472,360,465
2025-02-20 15:54:58.120,-658.0,1070.0,-639.0,254.0,218.0,-55.0,143,102,87,87,66,466,426,461
2025-02-20 15:54:58.146,-784.0,1561.0,-1242.0,255.0,140.0,-153.0,142,105,90,86,65,455,497,450
2025-02-20 15:54:58.162,-1139.0,2084.0,-1625.0,253.0,-37.0,-379.0,141,109,95,85,64,423,549,456
2025-02-20 15:54:58.181,-1030.0,1956.0,-1678.0,219.0,-280.0,-635.0,137,113,98,86,62,419,609,453
2025-02-20 15:54:58.199,-64.0,860.0,-1002.0,214.0,-545.0,-787.0,133,118,100,90,65,406,659,463
2025-02-20 15:54:58.217,2186.0,92.0,-421.0,98.0,-857.0,-756.0,132,123,102,95,69,427,669,462
2025-02-20 15:54:58.240,3959.0,-2574.0,1777.0,31.0,-725.0,-452.0,133,128,103,98,70,469,649,466
2025-02-20 15:54:58.257,4266.0,-3806.0,2319.0,22.0,-226.0,-113.0,133,129,104,103,73,447,621,462
2025-02-20 15:54:58.276,3016.0,-3428.0,1852.0,112.0,119.0,126.0,132,129,103,104,73,429,578,463
2025-02-20 15:54:58.297,668.0,-1827.0,1354.0,109.0,204.0,154.0,133,130,104,102,70,397,492,462
2025-02-20 15:54:58.314,69.0,-1221.0,837.0,-32.0,140.0,147.0,133,130,104,103,68,435,402,470
2025-02-20 15:54:58.332,92.0,-1385.0,662.0,-96.0,112.0,182.0,133,130,104,99,67,522,391,475
2025-02-20 15:54:58.354,-117.0,-1235.0,516.0,-84.0,92.0,215.0,134,130,105,98,65,536,428,477
2025-02-20 15:54:58.369,-196.0,-842.0,633.0,-67.0,107.0,231.0,134,130,105,97,64,539,439,478
2025-02-20 15:54:58.391,-132.0,-847.0,665.0,-53.0,133.0,247.0,133,129,105,96,65,546,335,486
2025-02-20 15:54:58.409,-136.0,-697.0,647.0,-28.0,154.0,251.0,134,130,105,95,67,556,244,481
2025-02-20 15:54:58.429,-289.0,-394.0,538.0,-19.0,168.0,243.0,133,129,105,94,67,487,208,465
2025-02-20 15:54:58.449,-220.0,-240.0,337.0,-25.0,194.0,239.0,134,130,105,94,67,456,288,468
2025-02-20 15:54:58.466,-191.0,-298.0,397.0,-15.0,237.0,252.0,135,129,105,94,68,453,447,471
2025-02-20 15:54:58.485,-448.0,-87.0,138.0,29.0,258.0,240.0,135,129,106,91,70,458,501,470
2025-02-20 15:54:58.505,-612.0,56.0,51.0,27.0,236.0,221.0,137,129,105,90,69,458,509,475
2025-02-20 15:54:58.523,-579.0,277.0,-210.0,33.0,205.0,169.0,136,129,105,89,69,487,565,473
2025-02-20 15:54:58.543,-606.0,339.0,-310.0,87.0,188.0,113.0,137,128,106,88,68,496,661,465
2025-02-20 15:54:58.562,-752.0,862.0,-509.0,100.0,159.0,64.0,136,127,105,88,68,537,699,466
2025-02-20 15:54:58.581,-771.0,1342.0,-1179.0,77.0,51.0,-24.0,137,126,105,87,68,527,675,473
2025-02-20 15:54:58.601,-1429.0,1590.0,-1962.0,103.0,-151.0,-229.0,137,126,106,85,68,541,645,456
2025-02-20 15:54:58.621,-1488.0,1860.0,-1944.0,147.0,-491.0,-486.0,136,127,106,86,68,484,588,469
2025-02-20 15:54:58.635,-380.0,1945.0,-1320.0,42.0,-788.0,-689.0,135,129,105,89,73,440,560,478
2025-02-20 15:54:58.658,2629.0,1336.0,-242.0,-210.0,-992.0,-816.0,136,132,107,94,83,411,538,493
2025-02-20 15:54:58.675,4047.0,-2271.0,551.0,-351.0,-901.0,-649.0,136,131,106,100,91,346,469,480
2025-02-20 15:54:58.695,4061.0,-4942.0,543.0,-57.0,-498.0,-167.0,136,131,106,102,97,424,404,457
2025-02-20 15:54:58.715,3229.0,-3292.0,1020.0,139.0,2.0,114.0,137,131,105,102,95,424,253,447
2025-02-20 15:54:58.732,1520.0,-1799.0,1301.0,131.0,214.0,109.0,139,131,105,101,87,475,164,443
2025-02-20 15:54:58.752,186.0,-1092.0,691.0,51.0,176.0,63.0,138,132,106,101,83,489,138,433
2025-02-20 15:54:58.772,-80.0,-1113.0,551.0,20.0,132.0,61.0,138,131,105,101,81,484,191,445
2025-02-20 15:54:58.790,-131.0,-1003.0,382.0,72.0,87.0,70.0,139,131,104,101,81,495,201,464
2025-02-20 15:54:58.810,-179.0,-933.0,491.0,90.0,59.0,57.0,138,131,103,101,79,528,305,459
2025-02-20 15:54:58.827,-48.0,-746.0,595.0,112.0,76.0,24.0,138,130,102,101,78,533,346,471
2025-02-20 15:54:58.846,150.0,-994.0,795.0,179.0,125.0,7.0,139,127,98,102,76,564,375,464
2025-02-20 15:54:58.867,189.0,-1030.0,864.0,264.0,192.0,0.0,139,120,86,104,72,509,446,465
2025-02-20 15:54:58.884,113.0,-896.0,831.0,349.0,259.0,-8.0,141,109,76,104,72,502,523,452
2025-02-20 15:54:58.904,-113.0,-575.0,507.0,403.0,279.0,-22.0,140,97,73,105,70,442,576,452
2025-02-20 15:54:58.924,-345.0,-423.0,421.0,470.0,297.0,-70.0,141,86,68,101,68,419,626,456
2025-02-20 15:54:58.941,-440.0,-240.0,432.0,492.0,289.0,-107.0,142,74,62,94,66,467,643,465
2025-02-20 15:54:58.961,-429.0,-183.0,284.0,455.0,243.0,-114.0,141,67,58,89,65,570,693,482
2025-02-20 15:54:58.981,-328.0,-101.0,422.0,324.0,149.0,-95.0,141,63,54,86,62,564,741,481
2025-02-20 15:54:58.998,50.0,-983.0,541.0,225.0,65.0,-10.0,141,60,51,85,61,507,673,472
2025-02-20 15:54:59.017,536.0,-1628.0,912.0,151.0,-41.0,137.0,139,58,49,81,59,406,587,463
2025-02-20 15:54:59.036,938.0,-1435.0,1805.0,-24.0,-52.0,326.0,138,59,48,77,59,300,456,452
2025-02-20 15:54:59.055,1109.0,-1336.0,1694.0,-217.0,9.0,572.0,138,59,48,75,58,348,382,442
2025-02-20 15:54:59.075,1695.0,-1398.0,1558.0,-237.0,15.0,805.0,140,59,48,72,58,405,349,442
2025-02-20 15:54:59.091,777.0,1682.0,1564.0,-408.0,-47.0,687.0,140,58,49,72,57,442,303,450
2025-02-20 15:54:59.113,186.0,1628.0,1699.0,-509.0,-80.0,524.0,144,59,51,72,57,466,256,461
2025-02-20 15:54:59.133,-94.0,1914.0,1945.0,-362.0,-33.0,277.0,145,61,52,73,58,474,223,467
2025-02-20 15:54:59.149,-70.0,1566.0,2058.0,-134.0,65.0,123.0,147,61,53,73,58,514,193,472
2025-02-20 15:54:59.169,-235.0,1663.0,1710.0,62.0,131.0,30.0,147,63,53,73,57,554,189,474
2025-02-20 15:54:59.190,-320.0,1525.0,1343.0,62.0,159.0,-71.0,146,62,53,75,57,474,266,487
2025-02-20 15:54:59.207,-190.0,896.0,1003.0,31.0,176.0,-109.0,146,62,52,73,57,462,345,490
2025-02-20 15:54:59.227,-197.0,288.0,632.0,22.0,170.0,-127.0,147,62,53,72,56,476,402,482
2025-02-20 15:54:59.240,-289.0,-42.0,459.0,75.0,134.0,-154.0,147,63,53,73,56,469,475,475
2025-02-20 15:54:59.264,-437.0,-14.0,450.0,124.0,94.0,-181.0,147,61,54,74,56,457,556,471
2025-02-20 15:54:59.284,-451.0,-52.0,470.0,159.0,38.0,-208.0,147,63,54,74,56,461,623,472
2025-02-20 15:54:59.302,-494.0,-73.0,449.0,206.0,0.0,-248.0,147,63,54,74,57,453,659,474
2025-02-20 15:54:59.321,-438.0,-263.0,585.0,274.0,-33.0,-270.0,147,63,54,74,58,462,686,474
2025-02-20 15:54:59.342,-480.0,-1.0,639.0,363.0,-37.0,-303.0,146,63,54,75,59,492,711,472
2025-02-20 15:54:59.355,-476.0,177.0,725.0,372.0,-64.0,-322.0,145,63,54,76,60,508,712,466
2025-02-20 15:54:59.379,-233.0,185.0,1021.0,234.0,-108.0,-280.0,145,63,54,76,60,492,663,463
2025-02-20 15:54:59.399,-154.0,-87.0,1075.0,137.0,-139.0,-256.0,146,63,54,77,61,518,607,471
2025-02-20 15:54:59.416,159.0,-738.0,1172.0,82.0,-109.0,-171.0,147,63,54,78,62,502,555,469
2025-02-20 15:54:59.436,418.0,-1462.0,1245.0,121.0,-72.0,-74.0,147,64,53,78,63,461,493,467
2025-02-20 15:54:59.453,700.0,-1750.0,1361.0,148.0,-48.0,82.0,145,64,53,78,63,438,400,471
2025-02-20 15:54:59.472,1063.0,-1347.0,1424.0,30.0,-64.0,291.0,143,63,53,78,63,422,325,469
2025-02-20 15:54:59.493,1044.0,-1473.0,1388.0,-132.0,-70.0,544.0,142,63,53,76,62,417,270,462
2025-02-20 15:54:59.508,1465.0,-824.0,1301.0,-261.0,-49.0,735.0,143,63,53,78,62,442,239,460
2025-02-20 15:54:59.530,696.0,934.0,1520.0,-414.0,-84.0,702.0,142,63,53,76,62,450,226,452
2025-02-20 15:54:59.550,586.0,1451.0,1854.0,-587.0,-103.0,598.0,143,63,54,75,61,472,206,457
2025-02-20 15:54:59.567,312.0,2006.0,2216.0,-491.0,-74.0,415.0,145,64,55,74,62,516,242,458
2025-02-20 15:54:59.588,243.0,1756.0,2590.0,-330.0,0.0,168.0,145,65,55,75,63,533,311,452
2025-02-20 15:54:59.608,208.0,1018.0,2460.0,-114.0,146.0,38.0,145,66,56,78,63,507,414,455
2025-02-20 15:54:59.625,13.0,513.0,1601.0,-18.0,239.0,-60.0,145,66,56,79,64,496,522,458
2025-02-20 15:54:59.643,32.0,-181.0,1033.0,-4.0,268.0,-75.0,144,69,57,79,64,504,630,460
2025-02-20 15:54:59.665,-92.0,-679.0,734.0,-32.0,244.0,-66.0,143,70,57,81,64,479,727,458
2025-02-20 15:54:59.682,-19.0,-1208.0,817.0,-43.0,237.0,-41.0,143,74,60,84,65,476,778,466
2025-02-20 15:54:59.702,55.0,-1303.0,786.0,11.0,250.0,10.0,142,79,65,86,66,453,789,466
2025-02-20 15:54:59.720,-223.0,-937.0,729.0,-20.0,237.0,53.0,144,84,69,87,68,449,747,472
2025-02-20 15:54:59.738,-496.0,-842.0,681.0,-71.0,207.0,69.0,144,92,73,91,70,470,703,471
2025-02-20 15:54:59.758,-498.0,-875.0,655.0,-59.0,209.0,87.0,143,97,76,94,73,470,644,470
2025-02-20 15:54:59.773,-546.0,-485.0,720.0,-23.0,287.0,107.0,143,101,80,95,76,453,602,475
2025-02-20 15:54:59.796,-700.0,207.0,579.0,-23.0,317.0,93.0,145,102,80,97,77,434,549,479
2025-02-20 15:54:59.816,-556.0,578.0,360.0,-60.0,334.0,45.0,146,103,80,97,78,435,480,486
2025-02-20 15:54:59.834,-815.0,848.0,10.0,-51.0,328.0,-5.0,145,102,80,96,79,417,402,475
2025-02-20 15:54:59.854,-849.0,1123.0,-78.0,-65.0,316.0,-66.0,144,90,75,95,78,417,320,468
2025-02-20 15:54:59.871,-691.0,1340.0,-505.0,-42.0,232.0,-152.0,143,78,68,92,75,441,255,470
2025-02-20 15:54:59.881,-365.0,1672.0,-1120.0,50.0,168.0,-265.0,141,69,61,84,69,471,229,460
2025-02-20 15:54:59.911,-688.0,1926.0,-1254.0,182.0,71.0,-406.0,135,60,55,76,61,445,226,445
2025-02-20 15:54:59.932,-849.0,2243.0,-1579.0,183.0,-150.0,-646.0,130,57,51,71,57,405,253,455
2025-02-20 15:54:59.949,440.0,2173.0,-2054.0,116.0,-686.0,-962.0,127,53,48,72,58,406,308,459
2025-02-20 15:54:59.968,5366.0,-994.0,724.0,50.0,-878.0,-823.0,121,52,48,73,59,418,347,467
2025-02-20 15:54:59.986,5298.0,-5598.0,2874.0,-78.0,-364.0,-189.0,116,52,49,73,59,510,394,470
2025-02-20 15:55:00.004,3149.0,-4766.0,2059.0,52.0,163.0,42.0,114,53,47,68,57,486,536,451
2025-02-20 15:55:00.021,891.0,-2530.0,372.0,97.0,222.0,115.0,112,53,47,65,54,478,643,446
2025-02-20 15:55:00.042,-42.0,-1490.0,-107.0,-38.0,114.0,138.0,112,53,48,66,53,470,670,447
2025-02-20 15:55:00.063,-5.0,-1945.0,-20.0,-78.0,28.0,130.0,112,55,48,69,55,506,748,448
2025-02-20 15:55:00.083,228.0,-1997.0,426.0,-35.0,61.0,198.0,114,54,49,70,57,554,719,460
2025-02-20 15:55:00.100,210.0,-1575.0,580.0,8.0,107.0,234.0,115,55,50,72,57,515,637,460
2025-02-20 15:55:00.120,106.0,-1145.0,539.0,3.0,136.0,241.0,116,55,50,72,56,497,576,459
2025-02-20 15:55:00.137,-105.0,-770.0,463.0,-41.0,122.0,242.0,118,56,51,72,57,480,567,466
2025-02-20 15:55:00.156,-178.0,-685.0,357.0,-70.0,102.0,236.0,119,56,51,72,55,517,554,469
2025-02-20 15:55:00.174,-185.0,-696.0,374.0,-73.0,117.0,247.0,119,55,52,73,58,470,506,463
2025-02-20 15:55:00.193,-93.0,-628.0,315.0,-65.0,149.0,273.0,121,56,54,74,58,470,432,455
2025-02-20 15:55:00.214,-411.0,-351.0,150.0,-38.0,138.0,282.0,121,55,53,73,60,459,380,463
2025-02-20 15:55:00.235,-432.0,-148.0,-32.0,-17.0,114.0,268.0,120,56,52,74,59,462,323,466
2025-02-20 15:55:00.252,-439.0,-9.0,4.0,7.0,96.0,228.0,121,56,54,72,59,429,336,456
2025-02-20 15:55:00.272,-323.0,209.0,86.0,23.0,102.0,198.0,122,57,53,72,60,433,233,454
2025-02-20 15:55:00.292,-507.0,594.0,-126.0,5.0,109.0,164.0,120,55,54,73,60,439,277,456
2025-02-20 15:55:00.309,-788.0,876.0,-298.0,-9.0,54.0,109.0,121,56,54,73,61,470,330,453
2025-02-20 15:55:00.326,-795.0,1075.0,-519.0,12.0,22.0,58.0,121,57,55,73,61,499,302,462
2025-02-20 15:55:00.349,-792.0,1737.0,-740.0,87.0,-7.0,-39.0,122,56,53,73,61,502,306,471
2025-02-20 15:55:00.366,-972.0,2873.0,-1115.0,224.0,-47.0,-265.0,122,57,54,73,60,497,373,475
2025-02-20 15:55:00.386,-1488.0,3473.0,-1393.0,176.0,-205.0,-651.0,120,56,52,71,60,488,418,464
2025-02-20 15:55:00.403,-364.0,2303.0,-1556.0,64.0,-594.0,-933.0,120,54,52,70,60,473,463,461
2025-02-20 15:55:00.423,3161.0,1667.0,-1394.0,-216.0,-1000.0,-1046.0,121,53,52,75,62,407,495,457
2025-02-20 15:55:00.444,6869.0,-4410.0,635.0,-525.0,-799.0,-643.0,125,55,51,77,65,336,529,464
2025-02-20 15:55:00.461,6071.0,-8287.0,967.0,-161.0,-57.0,46.0,125,57,53,77,65,413,577,442
2025-02-20 15:55:00.481,2000.0,-3578.0,-275.0,203.0,277.0,179.0,127,57,52,73,64,419,628,446
2025-02-20 15:55:00.501,402.0,-1447.0,-857.0,145.0,232.0,173.0,128,59,52,71,58,404,671,445
2025-02-20 15:55:00.517,-16.0,-1246.0,-795.0,-16.0,99.0,159.0,127,59,51,72,59,445,575,442
2025-02-20 15:55:00.538,-7.0,-1966.0,-395.0,61.0,10.0,204.0,128,59,52,76,63,431,506,450
2025-02-20 15:55:00.555,179.0,-1667.0,9.0,188.0,31.0,232.0,129,59,52,79,64,511,464,453
2025-02-20 15:55:00.575,45.0,-1033.0,215.0,227.0,57.0,230.0,130,60,54,78,65,473,358,449
2025-02-20 15:55:00.595,144.0,-738.0,448.0,207.0,71.0,217.0,130,60,55,77,67,461,308,452
2025-02-20 15:55:00.611,74.0,-1118.0,127.0,226.0,79.0,261.0,131,62,54,79,68,563,363,458
2025-02-20 15:55:00.633,146.0,-969.0,190.0,230.0,154.0,326.0,131,62,55,80,70,577,269,451
2025-02-20 15:55:00.652,216.0,-369.0,-194.0,265.0,179.0,358.0,131,63,57,82,74,536,259,449
2025-02-20 15:55:00.670,-80.0,-67.0,-191.0,315.0,193.0,347.0,132,64,56,85,77,498,262,456
2025-02-20 15:55:00.690,-301.0,209.0,-206.0,374.0,160.0,311.0,132,63,56,87,77,470,273,451
2025-02-20 15:55:00.710,-402.0,456.0,-149.0,347.0,117.0,263.0,134,63,56,90,76,465,397,448
2025-02-20 15:55:00.726,-775.0,1088.0,-75.0,259.0,8.0,196.0,134,63,57,93,78,438,413,448
2025-02-20 15:55:00.746,-957.0,1835.0,-370.0,162.0,-81.0,113.0,135,61,58,92,96,435,454,447
2025-02-20 15:55:00.767,-1563.0,2476.0,-1425.0,103.0,-165.0,-97.0,135,60,60,93,111,424,512,445
2025-02-20 15:55:00.784,-1473.0,1719.0,-355.0,347.0,-177.0,-305.0,137,59,58,96,121,462,577,454
2025-02-20 15:55:00.805,-1444.0,2271.0,-559.0,484.0,-293.0,-390.0,134,61,57,97,124,474,647,461
2025-02-20 15:55:00.824,-720.0,2196.0,108.0,431.0,-439.0,-445.0,137,62,58,99,125,480,639,456
2025-02-20 15:55:00.842,808.0,645.0,1069.0,431.0,-496.0,-392.0,138,62,59,104,126,445,640,460
2025-02-20 15:55:00.859,1827.0,75.0,2689.0,392.0,-398.0,-249.0,143,63,61,109,126,441,647,458
2025-02-20 15:55:00.882,2085.0,-49.0,3661.0,138.0,-175.0,-102.0,143,64,62,110,126,359,632,460
2025-02-20 15:55:00.898,1834.0,-645.0,3069.0,-131.0,82.0,-21.0,144,64,60,110,128,331,602,465
2025-02-20 15:55:00.918,1349.0,-1263.0,1770.0,-90.0,186.0,73.0,144,64,61,108,126,380,546,464
2025-02-20 15:55:00.935,338.0,-680.0,1125.0,-11.0,158.0,137.0,144,64,61,106,127,405,465,456
2025-02-20 15:55:00.956,-52.0,-156.0,1139.0,-64.0,118.0,209.0,143,64,60,103,128,416,409,457
2025-02-20 15:55:00.975,-219.0,103.0,1144.0,-158.0,77.0,292.0,143,65,61,101,127,398,376,460
2025-02-20 15:55:00.993,-222.0,240.0,1056.0,-240.0,44.0,342.0,144,65,62,98,127,446,293,476
2025-02-20 15:55:01.013,-268.0,225.0,801.0,-262.0,-9.0,318.0,143,65,62,97,127,468,220,479
2025-02-20 15:55:01.033,-285.0,164.0,887.0,-165.0,-42.0,275.0,144,64,63,93,128,503,192,471
2025-02-20 15:55:01.050,-309.0,52.0,970.0,-54.0,4.0,249.0,144,65,62,95,130,471,203,470
2025-02-20 15:55:01.070,-319.0,544.0,944.0,26.0,45.0,215.0,144,64,63,96,129,462,236,470
2025-02-20 15:55:01.087,-477.0,966.0,903.0,-22.0,62.0,164.0,143,65,63,95,130,513,307,470
2025-02-20 15:55:01.108,-480.0,825.0,882.0,-59.0,77.0,79.0,143,65,63,91,131,487,390,457
2025-02-20 15:55:01.128,-543.0,735.0,755.0,-22.0,74.0,34.0,144,65,64,90,131,485,456,456
2025-02-20 15:55:01.145,-532.0,751.0,593.0,3.0,54.0,14.0,143,65,64,90,131,480,524,470
2025-02-20 15:55:01.161,-649.0,1115.0,540.0,8.0,32.0,-13.0,144,65,64,91,131,479,577,475
2025-02-20 15:55:01.185,-898.0,2048.0,516.0,-44.0,35.0,-108.0,144,66,64,89,131,461,642,473
2025-02-20 15:55:01.202,-1105.0,2300.0,379.0,-94.0,41.0,-292.0,144,65,65,89,132,500,700,465
2025-02-20 15:55:01.222,-1153.0,1838.0,50.0,49.0,34.0,-439.0,143,65,63,91,131,473,744,461
2025-02-20 15:55:01.242,-418.0,1403.0,-43.0,160.0,-84.0,-564.0,142,63,61,92,131,408,730,449
2025-02-20 15:55:01.259,595.0,581.0,240.0,136.0,-256.0,-596.0,140,63,59,97,127,410,684,456
2025-02-20 15:55:01.279,1861.0,-1612.0,1377.0,143.0,-312.0,-428.0,141,64,60,102,125,389,622,453
2025-02-20 15:55:01.299,2353.0,-2208.0,2272.0,127.0,-188.0,-153.0,142,65,60,104,124,375,530,464
2025-02-20 15:55:01.317,1956.0,-1258.0,2531.0,-54.0,-62.0,-10.0,143,65,61,102,125,331,415,465
2025-02-20 15:55:01.337,1431.0,-1654.0,1890.0,-127.0,63.0,71.0,142,65,60,102,126,366,357,475
2025-02-20 15:55:01.353,646.0,-1256.0,1149.0,-15.0,114.0,116.0,141,65,61,100,125,420,286,465
2025-02-20 15:55:01.374,-90.0,-138.0,1232.0,0.0,94.0,134.0,141,64,61,99,126,452,264,462
2025-02-20 15:55:01.392,-237.0,-4.0,1549.0,-92.0,83.0,165.0,141,66,61,100,127,492,254,469
2025-02-20 15:55:01.411,-197.0,77.0,1470.0,-170.0,94.0,199.0,141,62,62,101,128,514,259,471
2025-02-20 15:55:01.431,-271.0,140.0,1244.0,-238.0,74.0,177.0,142,65,62,100,128,479,271,473
2025-02-20 15:55:01.451,-176.0,-172.0,1362.0,-224.0,81.0,146.0,141,65,63,100,129,495,288,481
2025-02-20 15:55:01.468,-1.0,-363.0,1403.0,-210.0,143.0,161.0,141,66,63,100,129,444,332,475
2025-02-20 15:55:01.488,-14.0,-395.0,1270.0,-207.0,219.0,209.0,141,66,63,96,128,434,417,470
2025-02-20 15:55:01.509,-118.0,-368.0,1034.0,-184.0,275.0,263.0,139,66,63,94,126,461,518,473
2025-02-20 15:55:01.526,-161.0,-48.0,814.0,-162.0,304.0,282.0,141,61,64,90,122,462,591,470
2025-02-20 15:55:01.546,-319.0,300.0,586.0,-178.0,323.0,256.0,141,66,63,85,118,483,639,476
2025-02-20 15:55:01.563,-159.0,333.0,540.0,-173.0,368.0,238.0,141,66,64,88,118,460,677,485
2025-02-20 15:55:01.583,-443.0,338.0,66.0,-104.0,365.0,210.0,142,66,63,89,116,447,698,482
2025-02-20 15:55:01.603,-390.0,599.0,-139.0,-47.0,361.0,163.0,141,67,65,89,114,441,703,481
2025-02-20 15:55:01.620,-660.0,691.0,-478.0,41.0,358.0,112.0,143,69,67,93,111,458,663,479
2025-02-20 15:55:01.640,-990.0,909.0,-966.0,64.0,269.0,15.0,142,68,68,98,109,440,602,475
2025-02-20 15:55:01.660,-831.0,1005.0,-1130.0,42.0,144.0,-45.0,143,69,69,98,108,436,538,475
2025-02-20 15:55:01.677,-674.0,1296.0,-2017.0,112.0,6.0,-147.0,142,70,71,105,109,464,457,466
2025-02-20 15:55:01.697,-933.0,1724.0,-2711.0,126.0,-344.0,-328.0,142,77,76,109,115,492,395,467
2025-02-20 15:55:01.718,-865.0,1788.0,-1635.0,-30.0,-620.0,-514.0,144,90,79,113,124,485,345,470
2025-02-20 15:55:01.734,227.0,1275.0,-318.0,-65.0,-706.0,-631.0,144,102,87,123,129,481,301,469
2025-02-20 15:55:01.754,978.0,-340.0,-1055.0,-234.0,-912.0,-664.0,143,114,94,130,131,505,254,472
2025-02-20 15:55:01.775,2088.0,-777.0,818.0,-538.0,-803.0,-594.0,141,122,98,131,131,473,155,470
2025-02-20 15:55:01.792,3737.0,-3724.0,371.0,-319.0,-429.0,-336.0,141,128,104,131,131,415,133,471
2025-02-20 15:55:01.812,2542.0,-4540.0,729.0,-111.0,-85.0,-19.0,140,130,105,133,131,439,179,460
2025-02-20 15:55:01.829,1624.0,-3034.0,482.0,0.0,130.0,178.0,142,128,105,133,132,410,258,458
2025-02-20 15:55:01.847,23.0,-1939.0,250.0,71.0,104.0,223.0,141,128,104,133,132,404,351,463
2025-02-20 15:55:01.865,25.0,-1423.0,540.0,91.0,-5.0,208.0,141,127,104,133,132,438,429,466
2025-02-20 15:55:01.886,-228.0,-1302.0,227.0,-12.0,-17.0,192.0,140,128,104,134,133,499,561,470
2025-02-20 15:55:01.906,-244.0,-1329.0,113.0,-24.0,-38.0,232.0,138,126,104,134,133,502,659,477
2025-02-20 15:55:01.926,-15.0,-1160.0,566.0,15.0,41.0,261.0,138,126,105,134,133,552,744,473
2025-02-20 15:55:01.943,-67.0,-648.0,731.0,94.0,50.0,253.0,136,126,105,134,133,559,729,470
2025-02-20 15:55:01.963,-269.0,-411.0,392.0,8.0,133.0,220.0,139,126,105,134,134,539,684,468
2025-02-20 15:55:01.980,-313.0,-319.0,469.0,55.0,176.0,191.0,137,126,103,134,134,519,688,473
2025-02-20 15:55:02.001,-392.0,233.0,470.0,27.0,145.0,204.0,137,125,105,134,134,509,668,473
2025-02-20 15:55:02.021,-446.0,218.0,473.0,10.0,153.0,177.0,136,126,104,133,134,548,564,476
2025-02-20 15:55:02.037,-734.0,241.0,242.0,47.0,160.0,135.0,135,124,104,133,134,536,539,473
2025-02-20 15:55:02.058,-637.0,558.0,154.0,121.0,152.0,107.0,135,124,104,133,135,472,404,474
2025-02-20 15:55:02.078,-883.0,1089.0,-195.0,162.0,113.0,38.0,133,122,104,133,135,485,325,464
2025-02-20 15:55:02.095,-1132.0,1763.0,-734.0,125.0,-10.0,-115.0,133,121,104,134,135,499,305,459
2025-02-20 15:55:02.114,-1510.0,1955.0,-719.0,156.0,-129.0,-336.0,133,122,105,133,136,422,265,466
2025-02-20 15:55:02.135,-609.0,2181.0,-757.0,70.0,-236.0,-706.0,134,124,105,133,137,362,231,472
2025-02-20 15:55:02.151,473.0,1036.0,482.0,-187.0,-516.0,-904.0,129,126,106,134,137,392,282,472
2025-02-20 15:55:02.173,2900.0,-649.0,232.0,-378.0,-617.0,-866.0,125,127,106,135,136,481,328,467
2025-02-20 15:55:02.193,3976.0,-3245.0,-467.0,-173.0,-308.0,-370.0,117,127,106,134,136,469,312,461
2025-02-20 15:55:02.210,3770.0,-5528.0,-207.0,-1.0,-98.0,128.0,117,126,105,134,136,489,348,457
2025-02-20 15:55:02.230,2364.0,-3396.0,191.0,165.0,160.0,228.0,119,124,104,134,134,441,431,453
2025-02-20 15:55:02.247,466.0,-1576.0,-100.0,199.0,281.0,222.0,121,122,102,133,134,434,477,458
2025-02-20 15:55:02.267,-208.0,-1070.0,64.0,104.0,190.0,233.0,122,120,101,133,134,479,509,461
2025-02-20 15:55:02.286,-590.0,-1325.0,428.0,148.0,153.0,215.0,123,119,99,134,132,552,574,469
2025-02-20 15:55:02.304,-459.0,-1272.0,251.0,174.0,108.0,210.0,124,114,94,132,131,458,652,480
2025-02-20 15:55:02.324,-154.0,-1290.0,184.0,175.0,154.0,228.0,125,111,89,129,132,472,693,469
2025-02-20 15:55:02.342,-78.0,-864.0,109.0,153.0,157.0,278.0,125,107,87,118,127,537,680,468
2025-02-20 15:55:02.361,-81.0,-1024.0,246.0,230.0,100.0,304.0,126,102,86,117,124,583,730,471
2025-02-20 15:55:02.380,183.0,-826.0,-15.0,304.0,85.0,313.0,127,95,83,115,117,554,647,465
2025-02-20 15:55:02.401,48.0,-553.0,129.0,275.0,101.0,325.0,127,84,78,108,112,545,586,464
2025-02-20 15:55:02.418,-207.0,-345.0,65.0,208.0,87.0,336.0,128,71,67,102,109,508,524,464
2025-02-20 15:55:02.438,-113.0,-158.0,-8.0,196.0,64.0,326.0,128,67,66,102,110,505,431,459
2025-02-20 15:55:02.454,-196.0,441.0,-16.0,251.0,31.0,276.0,129,68,66,100,113,473,355,455
2025-02-20 15:55:02.476,-737.0,1259.0,319.0,217.0,36.0,235.0,126,68,64,100,117,426,316,457
2025-02-20 15:55:02.495,-1135.0,2456.0,-268.0,232.0,16.0,17.0,123,67,63,96,121,365,187,451
2025-02-20 15:55:02.513,-1455.0,3101.0,-686.0,272.0,-22.0,-248.0,120,65,62,93,125,387,236,457
2025-02-20 15:55:02.531,-1781.0,2794.0,-861.0,375.0,-162.0,-470.0,119,63,61,92,127,406,296,457
2025-02-20 15:55:02.553,-855.0,1910.0,-435.0,423.0,-454.0,-536.0,119,62,60,96,128,434,277,454
2025-02-20 15:55:02.569,883.0,1055.0,734.0,407.0,-686.0,-514.0,125,63,62,97,126,478,307,466
2025-02-20 15:55:02.591,2465.0,-432.0,2226.0,361.0,-625.0,-377.0,132,65,66,101,123,565,373,474
2025-02-20 15:55:02.611,2478.0,-1396.0,3840.0,238.0,-310.0,-144.0,136,69,70,105,125,547,403,468
2025-02-20 15:55:02.628,2101.0,-587.0,3648.0,-43.0,61.0,-36.0,137,68,71,104,128,465,454,459
2025-02-20 15:55:02.647,1568.0,-1214.0,2151.0,-174.0,211.0,39.0,138,68,68,102,129,456,541,458
2025-02-20 15:55:02.664,609.0,-835.0,1033.0,-86.0,200.0,134.0,135,66,66,98,128,407,612,459
2025-02-20 15:55:02.683,-294.0,-98.0,721.0,-81.0,78.0,175.0,136,66,66,96,129,442,629,463
2025-02-20 15:55:02.701,-306.0,-54.0,1024.0,-122.0,33.0,226.0,135,67,66,98,129,447,589,465
2025-02-20 15:55:02.721,-298.0,86.0,1101.0,-162.0,35.0,287.0,135,66,68,100,131,359,592,462
2025-02-20 15:55:02.742,-206.0,221.0,1027.0,-202.0,41.0,283.0,135,71,68,100,131,423,608,460
2025-02-20 15:55:02.762,-139.0,187.0,853.0,-174.0,83.0,247.0,134,69,69,99,131,533,609,465
2025-02-20 15:55:02.779,-238.0,31.0,767.0,-83.0,111.0,236.0,135,69,69,99,132,551,560,480
2025-02-20 15:55:02.799,-182.0,111.0,608.0,-7.0,129.0,255.0,135,69,70,99,132,532,476,480
2025-02-20 15:55:02.816,-291.0,620.0,549.0,3.0,95.0,235.0,135,69,71,99,133,500,411,477
2025-02-20 15:55:02.834,-525.0,1100.0,722.0,17.0,86.0,161.0,136,69,70,96,134,450,378,477
2025-02-20 15:55:02.857,-796.0,1404.0,549.0,16.0,46.0,64.0,136,69,70,92,135,464,357,475
2025-02-20 15:55:02.871,-836.0,1709.0,476.0,16.0,25.0,-26.0,135,70,71,92,135,474,328,476
2025-02-20 15:55:02.893,-1176.0,2320.0,330.0,57.0,61.0,-174.0,135,69,71,93,136,436,281,475
2025-02-20 15:55:02.914,-1471.0,2604.0,-50.0,163.0,53.0,-385.0,133,69,71,95,136,451,265,473
2025-02-20 15:55:02.931,-1217.0,2130.0,-287.0,185.0,-79.0,-535.0,128,65,66,97,136,462,282,472
2025-02-20 15:55:02.950,142.0,980.0,41.0,211.0,-323.0,-537.0,129,65,66,102,132,478,317,466
2025-02-20 15:55:02.971,1483.0,-375.0,1315.0,243.0,-371.0,-433.0,132,67,67,109,126,534,375,455
2025-02-20 15:55:02.987,2105.0,-1638.0,2368.0,149.0,-229.0,-231.0,135,69,68,110,121,482,433,459
2025-02-20 15:55:03.008,2057.0,-1525.0,2711.0,-119.0,-89.0,-32.0,133,68,68,113,120,419,491,453
2025-02-20 15:55:03.028,1544.0,-1582.0,2057.0,-219.0,8.0,81.0,134,68,68,113,119,398,552,456
2025-02-20 15:55:03.046,876.0,-1471.0,1539.0,-107.0,60.0,141.0,133,68,69,113,118,369,605,455
2025-02-20 15:55:03.065,-21.0,-321.0,1380.0,-88.0,69.0,176.0,133,68,70,111,118,395,632,455
2025-02-20 15:55:03.086,-336.0,-19.0,1537.0,-169.0,58.0,207.0,134,69,70,111,120,437,659,455
2025-02-20 15:55:03.103,-318.0,-33.0,1530.0,-243.0,65.0,242.0,134,69,70,111,121,450,659,462
2025-02-20 15:55:03.120,-293.0,20.0,1465.0,-299.0,109.0,252.0,135,70,73,110,121,472,644,474
2025-02-20 15:55:03.139,-136.0,-90.0,1334.0,-298.0,176.0,247.0,136,72,76,109,121,500,587,482
2025-02-20 15:55:03.159,-165.0,-233.0,1022.0,-243.0,239.0,260.0,136,73,77,110,119,535,504,490
2025-02-20 15:55:03.180,-66.0,-205.0,956.0,-146.0,280.0,265.0,137,76,79,107,107,525,464,481
2025-02-20 15:55:03.197,-394.0,-9.0,706.0,-127.0,278.0,254.0,135,81,81,102,92,530,423,469
2025-02-20 15:55:03.216,-470.0,168.0,631.0,-82.0,266.0,222.0,136,86,86,100,83,529,374,472
2025-02-20 15:55:03.237,-552.0,157.0,524.0,-21.0,268.0,170.0,135,90,89,98,77,442,319,472
2025-02-20 15:55:03.254,-467.0,219.0,327.0,7.0,293.0,115.0,133,95,91,96,75,411,309,475
2025-02-20 15:55:03.274,-639.0,521.0,87.0,20.0,290.0,76.0,133,100,91,95,69,469,292,471
2025-02-20 15:55:03.294,-716.0,889.0,-201.0,-10.0,273.0,25.0,133,104,92,90,68,491,243,469
2025-02-20 15:55:03.312,-1044.0,1347.0,-1058.0,-74.0,141.0,-75.0,132,105,94,85,69,475,236,462
2025-02-20 15:55:03.332,-1586.0,1821.0,-2154.0,-46.0,-69.0,-284.0,133,109,97,83,68,443,280,467
2025-02-20 15:55:03.351,-1184.0,2108.0,-2003.0,35.0,-303.0,-481.0,134,116,102,82,65,416,348,475
2025-02-20 15:55:03.367,-198.0,2219.0,-1675.0,-35.0,-487.0,-647.0,133,120,105,83,64,351,435,475
2025-02-20 15:55:03.389,458.0,1185.0,-1393.0,-149.0,-748.0,-728.0,134,123,105,84,65,372,527,459
2025-02-20 15:55:03.405,1908.0,26.0,-723.0,-353.0,-954.0,-659.0,134,125,106,85,66,462,592,459
2025-02-20 15:55:03.426,3645.0,-2915.0,560.0,-350.0,-856.0,-409.0,134,128,106,90,68,520,586,455
2025-02-20 15:55:03.446,4095.0,-4271.0,1107.0,-69.0,-312.0,-107.0,134,130,108,91,69,517,605,450
2025-02-20 15:55:03.463,3001.0,-3109.0,1164.0,46.0,87.0,92.0,135,130,107,91,69,503,633,447
2025-02-20 15:55:03.483,1100.0,-2293.0,842.0,135.0,256.0,109.0,136,130,108,89,65,454,637,452
2025-02-20 15:55:03.504,202.0,-1292.0,402.0,56.0,184.0,134.0,135,130,106,89,61,452,676,460
2025-02-20 15:55:03.520,-52.0,-1183.0,440.0,-28.0,127.0,177.0,135,131,107,89,64,483,705,462
2025-02-20 15:55:03.538,-22.0,-1322.0,512.0,-39.0,133.0,183.0,135,130,107,88,65,497,706,463
2025-02-20 15:55:03.555,15.0,-1084.0,492.0,11.0,180.0,180.0,135,131,108,88,67,509,617,454
2025-02-20 15:55:03.578,-250.0,-960.0,358.0,69.0,207.0,191.0,135,130,108,88,68,592,516,457
2025-02-20 15:55:03.597,-206.0,-556.0,336.0,64.0,197.0,193.0,136,130,108,88,69,569,360,459
2025-02-20 15:55:03.615,-149.0,-462.0,354.0,61.0,187.0,177.0,137,131,109,88,71,487,255,454
2025-02-20 15:55:03.635,-130.0,-512.0,389.0,67.0,204.0,174.0,136,130,107,88,73,457,219,457
2025-02-20 15:55:03.655,-196.0,-507.0,263.0,89.0,236.0,196.0,136,130,108,88,73,461,171,463
2025-02-20 15:55:03.672,-313.0,-356.0,336.0,114.0,271.0,210.0,136,130,109,88,76,488,166,465
2025-02-20 15:55:03.690,-275.0,-106.0,118.0,109.0,293.0,236.0,136,131,109,88,75,508,250,467
2025-02-20 15:55:03.712,-403.0,134.0,-106.0,129.0,298.0,247.0,136,130,108,86,77,512,296,476
2025-02-20 15:55:03.730,-288.0,791.0,-531.0,35.0,265.0,258.0,137,128,108,84,77,510,361,474
2025-02-20 15:55:03.749,-1622.0,926.0,-1011.0,-27.0,129.0,152.0,137,127,109,79,77,481,465,469
2025-02-20 15:55:03.770,-1736.0,981.0,-1748.0,96.0,-45.0,-50.0,137,127,109,78,76,464,576,465
2025-02-20 15:55:03.787,-1593.0,2634.0,-1641.0,136.0,-266.0,-366.0,136,126,109,80,75,441,646,464
2025-02-20 15:55:03.807,-1128.0,2296.0,-1275.0,-11.0,-473.0,-586.0,136,129,110,80,77,496,695,471
2025-02-20 15:55:03.826,-29.0,1687.0,-384.0,-132.0,-688.0,-776.0,136,129,109,83,80,488,717,465
2025-02-20 15:55:03.844,1781.0,190.0,-394.0,-373.0,-855.0,-769.0,136,130,109,86,83,473,680,463
2025-02-20 15:55:03.864,3692.0,-2784.0,508.0,-359.0,-703.0,-549.0,136,130,109,87,84,439,630,460
2025-02-20 15:55:03.881,4390.0,-4359.0,689.0,-123.0,-154.0,-83.0,135,131,108,87,84,464,577,444
2025-02-20 15:55:03.901,2957.0,-3356.0,705.0,148.0,205.0,94.0,136,131,108,87,80,380,505,438
2025-02-20 15:55:03.919,751.0,-1748.0,357.0,176.0,273.0,102.0,136,131,107,85,74,334,500,450
2025-02-20 15:55:03.938,-40.0,-1300.0,224.0,18.0,111.0,110.0,136,131,107,87,73,355,475,451
2025-02-20 15:55:03.958,-6.0,-1559.0,243.0,-6.0,38.0,106.0,137,131,108,86,73,402,417,471
2025-02-20 15:55:03.978,-13.0,-1381.0,172.0,51.0,61.0,107.0,137,131,108,86,73,537,373,479
2025-02-20 15:55:03.996,166.0,-1418.0,427.0,128.0,106.0,144.0,138,131,108,86,74,592,349,482
2025-02-20 15:55:04.016,137.0,-1291.0,428.0,155.0,142.0,198.0,138,129,106,87,77,587,255,475
2025-02-20 15:55:04.033,182.0,-1147.0,313.0,176.0,147.0,235.0,137,126,104,86,78,571,246,468
2025-02-20 15:55:04.052,278.0,-918.0,274.0,172.0,159.0,293.0,137,120,100,86,80,471,260,448
2025-02-20 15:55:04.070,108.0,-762.0,210.0,208.0,155.0,307.0,137,114,95,88,85,485,324,446
2025-02-20 15:55:04.090,-177.0,-733.0,188.0,205.0,132.0,324.0,137,106,86,91,89,447,355,444
2025-02-20 15:55:04.109,-204.0,-532.0,-6.0,217.0,105.0,329.0,137,97,82,97,94,450,371,460
2025-02-20 15:55:04.130,-272.0,-24.0,202.0,185.0,83.0,313.0,138,88,76,101,99,473,506,473
2025-02-20 15:55:04.147,-601.0,276.0,190.0,147.0,3.0,260.0,138,83,71,99,104,494,620,476
2025-02-20 15:55:04.167,-668.0,628.0,392.0,113.0,-58.0,187.0,138,83,75,99,112,529,657,471
2025-02-20 15:55:04.186,-775.0,1137.0,344.0,109.0,-94.0,110.0,138,82,77,96,121,509,725,464
2025-02-20 15:55:04.204,-1018.0,1727.0,483.0,172.0,-68.0,-49.0,139,83,78,95,127,414,769,458
2025-02-20 15:55:04.223,-1362.0,2217.0,460.0,305.0,-38.0,-246.0,139,83,78,95,132,376,759,462
2025-02-20 15:55:04.245,-1527.0,2931.0,238.0,323.0,-63.0,-397.0,139,82,78,95,133,421,700,461
2025-02-20 15:55:04.262,-987.0,2342.0,514.0,278.0,-123.0,-512.0,139,81,79,99,134,468,636,458
2025-02-20 15:55:04.282,81.0,666.0,794.0,316.0,-216.0,-536.0,140,81,79,97,134,531,574,461
2025-02-20 15:55:04.299,1251.0,-440.0,1305.0,383.0,-302.0,-443.0,140,83,79,101,132,518,489,461
2025-02-20 15:55:04.319,1942.0,-1559.0,2516.0,292.0,-279.0,-219.0,141,84,81,101,132,509,423,463
2025-02-20 15:55:04.339,2269.0,-1519.0,3221.0,-47.0,-114.0,-2.0,143,87,84,102,132,440,349,458
2025-02-20 15:55:04.356,1923.0,-1726.0,2297.0,-216.0,60.0,125.0,142,87,84,101,133,395,285,454
2025-02-20 15:55:04.376,923.0,-1420.0,1405.0,-132.0,139.0,191.0,143,85,84,98,133,393,225,451
2025-02-20 15:55:04.393,-5.0,-575.0,990.0,-38.0,103.0,232.0,140,86,84,97,133,420,218,454
2025-02-20 15:55:04.414,-429.0,-26.0,1048.0,-67.0,55.0,272.0,140,86,84,96,133,467,239,460
2025-02-20 15:55:04.433,-514.0,217.0,1043.0,-153.0,39.0,305.0,139,87,85,93,133,480,225,461
2025-02-20 15:55:04.451,-502.0,234.0,913.0,-218.0,14.0,324.0,140,87,85,91,133,500,268,465
2025-02-20 15:55:04.470,-400.0,181.0,913.0,-200.0,6.0,303.0,141,87,86,89,134,513,345,467
2025-02-20 15:55:04.489,-343.0,81.0,968.0,-109.0,36.0,272.0,140,88,85,89,133,496,403,470
2025-02-20 15:55:04.508,-388.0,337.0,744.0,-46.0,46.0,245.0,142,87,86,88,133,432,449,467
2025-02-20 15:55:04.528,-584.0,727.0,667.0,-20.0,6.0,209.0,141,88,86,87,135,503,525,470
2025-02-20 15:55:04.548,-607.0,939.0,692.0,-29.0,-33.0,116.0,140,87,87,86,135,457,582,475
2025-02-20 15:55:04.565,-719.0,1289.0,741.0,15.0,-39.0,22.0,141,87,88,85,137,475,671,481
2025-02-20 15:55:04.585,-773.0,1573.0,720.0,70.0,-30.0,-116.0,141,88,87,85,137,462,733,482
2025-02-20 15:55:04.605,-933.0,1707.0,601.0,205.0,-19.0,-225.0,142,88,87,85,137,392,732,482
2025-02-20 15:55:04.622,-1165.0,2460.0,351.0,216.0,-54.0,-319.0,141,87,86,87,137,397,664,476
2025-02-20 15:55:04.642,-726.0,2331.0,583.0,145.0,-97.0,-471.0,141,86,87,89,138,433,584,469
2025-02-20 15:55:04.663,119.0,1059.0,849.0,130.0,-104.0,-545.0,141,86,86,92,137,451,532,463
2025-02-20 15:55:04.676,969.0,-849.0,969.0,257.0,-109.0,-451.0,140,84,84,95,136,448,493,448
2025-02-20 15:55:04.700,1257.0,-1141.0,1254.0,231.0,-180.0,-298.0,142,85,83,96,136,506,433,445
2025-02-20 15:55:04.719,1756.0,-1828.0,1880.0,37.0,-229.0,-74.0,142,84,82,98,135,439,365,444
2025-02-20 15:55:04.736,1809.0,-2171.0,1920.0,-134.0,-145.0,138.0,143,85,84,99,136,416,286,448
2025-02-20 15:55:04.757,1255.0,-1409.0,1584.0,-167.0,-68.0,231.0,142,85,84,101,135,372,257,449
2025-02-20 15:55:04.774,492.0,-765.0,1394.0,-143.0,-16.0,286.0,142,85,85,101,136,414,232,448
2025-02-20 15:55:04.794,128.0,-112.0,1487.0,-111.0,-12.0,327.0,142,86,83,103,135,434,227,453
2025-02-20 15:55:04.814,-86.0,616.0,1977.0,-150.0,-28.0,284.0,142,87,85,106,133,448,266,466
2025-02-20 15:55:04.832,-16.0,423.0,2342.0,-212.0,70.0,236.0,143,90,87,110,129,452,323,476
2025-02-20 15:55:04.852,61.0,-115.0,2146.0,-199.0,217.0,209.0,143,92,87,112,126,486,377,482
2025-02-20 15:55:04.871,168.0,-266.0,1719.0,-142.0,357.0,193.0,143,93,85,112,123,493,441,482
2025-02-20 15:55:04.889,27.0,-74.0,1254.0,-107.0,438.0,200.0,142,84,74,109,121,493,530,472
2025-02-20 15:55:04.909,56.0,259.0,1061.0,-88.0,489.0,190.0,142,77,67,100,120,474,591,463
2025-02-20 15:55:04.926,-94.0,363.0,541.0,-138.0,509.0,190.0,142,72,62,95,115,505,658,467
2025-02-20 15:55:04.946,-335.0,421.0,365.0,-156.0,440.0,165.0,144,70,61,93,111,447,706,476
2025-02-20 15:55:04.965,-393.0,-238.0,271.0,-221.0,334.0,153.0,142,71,61,88,105,480,757,472
2025-02-20 15:55:04.980,-507.0,468.0,-168.0,-215.0,355.0,117.0,142,67,59,82,96,499,752,471
2025-02-20 15:55:05.002,-573.0,603.0,-488.0,-144.0,295.0,46.0,142,65,58,77,85,554,687,465
2025-02-20 15:55:05.023,-982.0,701.0,-890.0,-40.0,211.0,-5.0,140,65,56,74,78,515,609,458
2025-02-20 15:55:05.040,-701.0,1345.0,-1185.0,25.0,92.0,-92.0,138,62,53,68,71,438,528,456
2025-02-20 15:55:05.060,-540.0,1643.0,-1538.0,94.0,-30.0,-199.0,131,58,52,66,70,403,466,458
2025-02-20 15:55:05.080,-851.0,2039.0,-2601.0,156.0,-176.0,-384.0,122,57,51,65,61,451,360,462
2025-02-20 15:55:05.095,-1093.0,2055.0,-2483.0,184.0,-503.0,-543.0,116,55,50,64,51,416,274,457
2025-02-20 15:55:05.117,-23.0,1686.0,-2422.0,124.0,-810.0,-672.0,113,54,48,66,48,420,214,461
2025-02-20 15:55:05.138,3300.0,889.0,-1322.0,-7.0,-1185.0,-636.0,117,54,51,68,50,374,210,460
2025-02-20 15:55:05.154,5458.0,-2463.0,2762.0,-313.0,-897.0,-331.0,121,56,51,70,51,424,216,463
2025-02-20 15:55:05.175,4632.0,-4548.0,3529.0,-253.0,-90.0,-20.0,120,57,52,71,50,399,234,456
2025-02-20 15:55:05.191,2201.0,-4007.0,1845.0,141.0,238.0,-34.0,119,58,51,71,50,295,287,449
2025-02-20 15:55:05.211,552.0,-2003.0,940.0,100.0,307.0,95.0,121,59,51,68,48,358,347,453
2025-02-20 15:55:05.230,-206.0,-1119.0,482.0,-90.0,138.0,116.0,121,60,53,69,49,385,495,456
2025-02-20 15:55:05.249,111.0,-1889.0,605.0,-145.0,92.0,151.0,121,61,52,69,50,384,561,459
2025-02-20 15:55:05.269,-102.0,-1909.0,659.0,-92.0,120.0,213.0,123,61,53,70,51,435,591,462
2025-02-20 15:55:05.289,-130.0,-1298.0,696.0,-18.0,141.0,233.0,123,61,54,70,52,484,597,460
2025-02-20 15:55:05.306,-203.0,-839.0,590.0,8.0,142.0,218.0,124,61,54,69,53,477,572,452
2025-02-20 15:55:05.327,-278.0,-509.0,518.0,-26.0,157.0,211.0,125,62,55,70,55,532,576,459
2025-02-20 15:55:05.347,-409.0,-423.0,357.0,-54.0,155.0,208.0,125,61,55,71,58,537,603,456
2025-02-20 15:55:05.363,-223.0,-345.0,425.0,-60.0,180.0,220.0,127,61,55,71,63,514,674,459
2025-02-20 15:55:05.384,-259.0,-324.0,302.0,-21.0,208.0,231.0,133,60,57,71,65,498,593,465
2025-02-20 15:55:05.401,-320.0,-223.0,165.0,20.0,234.0,237.0,128,61,56,72,66,508,503,461
2025-02-20 15:55:05.421,-480.0,85.0,-14.0,46.0,222.0,224.0,128,61,56,71,67,491,489,466
2025-02-20 15:55:05.441,-446.0,458.0,-186.0,44.0,186.0,201.0,127,62,56,70,68,441,459,469
2025-02-20 15:55:05.458,-480.0,557.0,-261.0,41.0,169.0,179.0,126,63,57,72,70,452,314,465
2025-02-20 15:55:05.475,-749.0,733.0,-590.0,96.0,138.0,127.0,127,63,58,72,70,451,312,455
2025-02-20 15:55:05.498,-915.0,978.0,-960.0,168.0,64.0,56.0,128,64,58,72,71,454,309,447
2025-02-20 15:55:05.514,-1264.0,2256.0,-1845.0,200.0,-40.0,-153.0,125,64,57,70,66,460,295,448
2025-02-20 15:55:05.535,-1747.0,3031.0,-2260.0,135.0,-360.0,-520.0,122,62,56,69,62,484,275,449
2025-02-20 15:55:05.556,-587.0,2718.0,-2117.0,-36.0,-728.0,-798.0,122,60,56,69,62,446,277,453
2025-02-20 15:55:05.572,3273.0,-308.0,-919.0,-124.0,-1023.0,-801.0,125,59,56,72,65,441,274,446
2025-02-20 15:55:05.593,4983.0,-4444.0,2855.0,-22.0,-641.0,-377.0,129,62,56,76,68,459,318,452
2025-02-20 15:55:05.609,4577.0,-4581.0,2842.0,120.0,32.0,99.0,128,64,56,76,69,436,389,447
2025-02-20 15:55:05.630,887.0,-1975.0,1391.0,170.0,251.0,67.0,130,65,55,72,67,380,442,452
2025-02-20 15:55:05.647,-334.0,-882.0,651.0,21.0,137.0,65.0,130,65,56,72,65,382,491,456
2025-02-20 15:55:05.664,-300.0,-1154.0,560.0,-58.0,57.0,63.0,129,66,56,72,67,382,685,456
2025-02-20 15:55:05.687,-388.0,-1230.0,358.0,5.0,61.0,57.0,129,66,56,72,69,412,780,454
2025-02-20 15:55:05.707,-712.0,-830.0,362.0,57.0,24.0,26.0,129,67,56,74,69,471,786,465
2025-02-20 15:55:05.724,-548.0,-382.0,439.0,22.0,-20.0,19.0,130,66,56,72,70,534,755,473
2025-02-20 15:55:05.743,-304.0,-409.0,590.0,-30.0,-42.0,-7.0,129,65,56,73,70,552,647,469
2025-02-20 15:55:05.764,-139.0,-656.0,708.0,-64.0,-46.0,-10.0,130,65,56,75,72,567,552,471
2025-02-20 15:55:05.782,39.0,-952.0,806.0,-39.0,-8.0,7.0,130,65,55,75,72,501,487,475
2025-02-20 15:55:05.801,18.0,-1049.0,679.0,26.0,49.0,13.0,130,64,57,75,72,428,419,465
2025-02-20 15:55:05.817,-172.0,-892.0,472.0,52.0,66.0,18.0,131,64,57,75,73,356,305,464
2025-02-20 15:55:05.839,-342.0,-564.0,413.0,19.0,43.0,10.0,130,65,57,74,72,361,222,460
2025-02-20 15:55:05.858,-310.0,-680.0,445.0,-17.0,-4.0,8.0,131,64,57,75,74,480,247,454
2025-02-20 15:55:05.876,-290.0,-680.0,540.0,-20.0,-23.0,-2.0,130,65,58,74,72,516,308,458
2025-02-20 15:55:05.895,-212.0,-759.0,595.0,-18.0,-19.0,-3.0,131,65,56,75,73,520,251,463
2025-02-20 15:55:05.913,-180.0,-845.0,619.0,-8.0,-7.0,0.0,130,65,57,75,73,532,234,466
2025-02-20 15:55:05.933,-228.0,-771.0,581.0,2.0,1.0,-2.0,130,65,57,75,73,447,280,468
2025-02-20 15:55:05.953,-278.0,-742.0,606.0,-5.0,-2.0,-4.0,131,65,57,75,73,420,308,469
2025-02-20 15:55:05.973,-258.0,-801.0,608.0,-8.0,-9.0,-6.0,130,65,58,74,73,421,406,468
2025-02-20 15:55:05.991,-251.0,-868.0,656.0,-11.0,-8.0,-2.0,131,65,58,74,72,447,470,463
2025-02-20 15:55:06.011,-212.0,-840.0,680.0,-8.0,6.0,-4.0,131,65,59,74,73,469,522,462
2025-02-20 15:55:06.027,-238.0,-815.0,635.0,-7.0,11.0,-3.0,130,65,57,75,74,474,595,465
2025-02-20 15:55:06.047,-253.0,-917.0,584.0,-4.0,8.0,-2.0,131,65,58,76,69,461,657,466
2025-02-20 15:55:06.067,-181.0,-879.0,570.0,-3.0,1.0,2.0,131,65,58,76,73,466,673,462
2025-02-20 15:55:06.084,-210.0,-803.0,588.0,-5.0,5.0,3.0,131,66,58,76,73,487,692,460
2025-02-20 15:55:06.104,-223.0,-835.0,570.0,-4.0,6.0,2.0,131,65,58,76,73,524,698,459
2025-02-20 15:55:06.125,-230.0,-848.0,577.0,-1.0,6.0,1.0,131,65,58,75,73,517,665,462
2025-02-20 15:55:06.142,-207.0,-821.0,559.0,1.0,5.0,1.0,131,67,58,75,73,468,619,459
2025-02-20 15:55:06.162,-209.0,-810.0,559.0,0.0,5.0,1.0,131,65,58,76,73,451,557,459
2025-02-20 15:55:06.182,-215.0,-807.0,547.0,-2.0,4.0,2.0,131,65,59,75,73,454,494,462
2025-02-20 15:55:06.199,-229.0,-831.0,528.0,-3.0,0.0,5.0,131,65,57,76,74,424,429,466
2025-02-20 15:55:06.219,-250.0,-790.0,533.0,-2.0,-3.0,6.0,131,65,58,75,73,417,355,466
2025-02-20 15:55:06.236,-246.0,-758.0,574.0,-2.0,-4.0,4.0,130,65,59,75,73,421,282,468
2025-02-20 15:55:06.257,-244.0,-773.0,587.0,-3.0,3.0,1.0,131,65,58,76,73,433,236,469
2025-02-20 15:55:06.276,-242.0,-808.0,579.0,-3.0,4.0,2.0,130,65,58,76,73,451,225,474
2025-02-20 15:55:06.294,-278.0,-793.0,555.0,-2.0,-1.0,3.0,131,66,59,75,74,469,223,476
2025-02-20 15:55:06.314,-260.0,-802.0,564.0,-3.0,-7.0,5.0,130,66,58,76,73,477,253,477
2025-02-20 15:55:06.334,-245.0,-778.0,604.0,-4.0,-4.0,4.0,131,65,58,76,73,485,297,477
2025-02-20 15:55:06.351,-234.0,-776.0,622.0,0.0,0.0,2.0,131,66,58,76,74,489,359,477
2025-02-20 15:55:06.370,-252.0,-771.0,622.0,1.0,1.0,2.0,133,66,58,76,73,479,428,473
2025-02-20 15:55:06.391,-251.0,-792.0,615.0,1.0,-1.0,2.0,131,66,58,76,74,469,511,472
2025-02-20 15:55:06.408,-243.0,-773.0,611.0,0.0,0.0,3.0,131,65,58,75,73,463,582,469
2025-02-20 15:55:06.428,-260.0,-750.0,605.0,-2.0,2.0,2.0,131,64,58,75,73,465,640,468
2025-02-20 15:55:06.445,-280.0,-760.0,587.0,-2.0,3.0,0.0,131,65,58,75,74,475,676,466
2025-02-20 15:55:06.465,-270.0,-790.0,571.0,-1.0,2.0,0.0,131,65,58,75,73,480,691,466
2025-02-20 15:55:06.485,-260.0,-808.0,567.0,2.0,2.0,-1.0,131,66,57,76,73,479,689,466
2025-02-20 15:55:06.502,-248.0,-816.0,569.0,1.0,1.0,0.0,131,66,58,75,74,474,658,466
2025-02-20 15:55:06.523,-246.0,-813.0,580.0,-2.0,-1.0,2.0,131,66,58,76,74,471,623,466
2025-02-20 15:55:06.543,-231.0,-816.0,581.0,-3.0,0.0,2.0,131,70,58,76,74,470,567,465
2025-02-20 15:55:06.560,-224.0,-828.0,579.0,-1.0,3.0,2.0,133,65,58,76,73,476,502,465
2025-02-20 15:55:06.580,-239.0,-825.0,573.0,-2.0,2.0,2.0,131,65,58,77,73,480,422,468
2025-02-20 15:55:06.600,-238.0,-823.0,572.0,-3.0,-1.0,4.0,131,65,58,75,73,481,355,470
2025-02-20 15:55:06.616,-248.0,-820.0,578.0,-4.0,-2.0,6.0,131,65,58,76,74,480,306,473
2025-02-20 15:55:06.637,-264.0,-795.0,572.0,-2.0,-3.0,5.0,131,65,58,76,74,473,272,474
2025-02-20 15:55:06.657,-286.0,-770.0,569.0,-4.0,-2.0,5.0,132,66,58,76,74,473,259,474
2025-02-20 15:55:06.674,-279.0,-760.0,579.0,-2.0,1.0,2.0,134,66,58,76,74,473,261,475
2025-02-20 15:55:06.694,-275.0,-778.0,573.0,-4.0,1.0,2.0,132,66,58,76,74,471,284,473
2025-02-20 15:55:06.712,-285.0,-784.0,556.0,-3.0,0.0,1.0,131,66,58,76,74,466,329,473
2025-02-20 15:55:06.732,-287.0,-790.0,549.0,-2.0,-2.0,0.0,131,66,58,75,73,467,390,471
2025-02-20 15:55:06.750,-268.0,-792.0,561.0,-3.0,-3.0,-1.0,130,67,57,76,74,471,454,470
2025-02-20 15:55:06.769,-259.0,-816.0,572.0,-4.0,-3.0,1.0,131,65,58,76,74,472,526,470
2025-02-20 15:55:06.788,-251.0,-819.0,580.0,-3.0,-2.0,1.0,130,67,59,78,73,470,587,469
2025-02-20 15:55:06.809,-266.0,-800.0,576.0,0.0,-1.0,2.0,130,65,58,76,74,466,628,468
2025-02-20 15:55:06.826,-273.0,-780.0,575.0,0.0,-1.0,1.0,131,66,58,76,74,466,655,468
2025-02-20 15:55:06.846,-276.0,-790.0,575.0,-1.0,-3.0,1.0,131,66,58,76,74,466,665,468
2025-02-20 15:55:06.866,-260.0,-799.0,603.0,1.0,-2.0,1.0,131,66,58,76,74,467,648,467
2025-02-20 15:55:06.883,-267.0,-792.0,602.0,4.0,1.0,2.0,131,66,57,76,75,471,614,469
2025-02-20 15:55:06.903,-265.0,-778.0,601.0,3.0,2.0,1.0,131,66,58,76,74,475,563,469
2025-02-20 15:55:06.920,-280.0,-795.0,591.0,3.0,2.0,2.0,131,66,57,76,74,475,503,469
2025-02-20 15:55:06.941,-283.0,-758.0,600.0,2.0,2.0,1.0,132,66,58,77,74,476,439,470
